MEAN_POS_X,MEAN_POS_Y,MEAN_POS_Z,MEAN_ACC_X,MEAN_ACC_Y,MEAN_ACC_Z,MEAN_LINACC_X,MEAN_LINACC_Y,MEAN_LINACC_Z,MEAN_GYRO_X,MEAN_GYRO_Y,MEAN_GYRO_Z,MEAN_Heading,MEAN_Roll,MEAN_Pitch,MEAN_Pressure,MEDIAN_POS_X,MEDIAN_POS_Y,MEDIAN_POS_Z,MEDIAN_ACC_X,MEDIAN_ACC_Y,MEDIAN_ACC_Z,MEDIAN_LINACC_X,MEDIAN_LINACC_Y,MEDIAN_LINACC_Z,MEDIAN_GYRO_X,MEDIAN_GYRO_Y,MEDIAN_GYRO_Z,MEDIAN_Heading,MEDIAN_Roll,MEDIAN_Pitch,MEDIAN_Pressure,STD_POS_X,STD_POS_Y,STD_POS_Z,STD_ACC_X,STD_ACC_Y,STD_ACC_Z,STD_LINACC_X,STD_LINACC_Y,STD_LINACC_Z,STD_GYRO_X,STD_GYRO_Y,STD_GYRO_Z,STD_Heading,STD_Roll,STD_Pitch,STD_Pressure,MODE_POS_X,MODE_POS_Y,MODE_POS_Z,MODE_ACC_X,MODE_ACC_Y,MODE_ACC_Z,MODE_LINACC_X,MODE_LINACC_Y,MODE_LINACC_Z,MODE_GYRO_X,MODE_GYRO_Y,MODE_GYRO_Z,MODE_Heading,MODE_Roll,MODE_Pitch,MODE_Pressure,MAX_POS_X,MAX_POS_Y,MAX_POS_Z,MAX_ACC_X,MAX_ACC_Y,MAX_ACC_Z,MAX_LINACC_X,MAX_LINACC_Y,MAX_LINACC_Z,MAX_GYRO_X,MAX_GYRO_Y,MAX_GYRO_Z,MAX_Heading,MAX_Roll,MAX_Pitch,MAX_Pressure,MIN_POS_X,MIN_POS_Y,MIN_POS_Z,MIN_ACC_X,MIN_ACC_Y,MIN_ACC_Z,MIN_LINACC_X,MIN_LINACC_Y,MIN_LINACC_Z,MIN_GYRO_X,MIN_GYRO_Y,MIN_GYRO_Z,MIN_Heading,MIN_Roll,MIN_Pitch,MIN_Pressure,LOCATION,ACTIVITY
9646.04375,3115.7857186155316,799.653125654565,-552.25,-685.03125,-412.75,57.03125,-51.15625,-89.71875,1.76953125,27.673828125,-1.4453125,98.169921875,-37.66796875,115.95703125,94730.8984375,9626.725,3114.4333395942904,775.7432580767419,-494.0,-655.5,-538.5,72.5,-32.0,-88.5,7.03125,33.8125,-6.78125,97.03125,-40.53125,121.75,94730.0,80.47439259107965,40.97885976592978,86.61999229401252,319.4007493880962,455.09669191495504,568.4158518595002,288.1639860615883,412.4578656389273,437.14574482401395,43.62017152980161,178.0621343042298,51.3093449434723,23.99440897144293,10.00889772373328,21.567028144809196,3.105574705917128,9600.0,3100.0,750.0,-425.0,-1497.0,-1278.0,211.0,-732.0,-941.0,-78.25,-290.6875,-95.375,57.125,-51.0,116.6875,94730.0,9795.75,3202.4212007376545,1006.2390502664566,54.0,129.0,765.0,700.0,712.0,929.0,84.8125,406.6875,100.1875,160.875,-17.5,143.9375,94734.75,9494.85,3010.65,685.4903012927355,-1439.0,-1497.0,-1278.0,-563.0,-732.0,-941.0,-78.25,-290.6875,-95.375,57.125,-51.0,75.1875,94726.0,kitchen_sink,WASHHANDS
9645.853030303031,3194.6037705447347,978.0503430220837,-542.030303030303,-676.6060606060606,-420.1818181818182,15.666666666666666,-9.424242424242424,-109.63636363636364,-7.073863636363637,16.359848484848484,1.9924242424242424,98.20075757575758,-34.10795454545455,112.65530303030303,94732.93181818182,9646.05,3202.4212007376545,1006.2390502664566,-501.0,-683.0,-583.0,30.0,25.0,-104.0,-10.75,-0.75,-3.0,96.5,-38.0625,112.4375,94733.0,49.7568053438954,89.30059884345278,185.90114358299704,310.48847450916804,469.2373426232414,555.0656185615273,268.0179176224356,430.8856453793041,401.00232372938143,32.31462855108946,194.14323692301278,51.626789366253625,29.014719449283735,10.169537854669542,25.834325675512186,2.8022540643041434,9650.0,3100.0,750.0,-513.0,-1497.0,-1278.0,30.0,-732.0,-941.0,-65.6875,-290.6875,-77.6875,57.125,-47.3125,74.625,94730.0,9728.9,3315.371463697835,1231.3612273204483,-71.0,129.0,771.0,546.0,712.0,723.0,51.8125,406.6875,100.375,160.875,-17.5,146.5625,94736.75,9494.85,3063.5832081142,722.3737676802518,-1439.0,-1497.0,-1278.0,-563.0,-732.0,-941.0,-65.6875,-290.6875,-77.6875,57.125,-47.3125,74.625,94729.5,kitchen_sink,WASHHANDS
9687.819696969698,3286.8945663175023,1119.7787716140713,-522.8484848484849,-547.8484848484849,-474.72727272727275,22.515151515151516,48.27272727272727,-15.06060606060606,-7.740530303030303,-9.795454545454545,-2.577651515151515,101.64204545454545,-33.78219696969697,126.06060606060606,94735.21212121213,9678.75,3290.436363636364,1134.7081531612707,-502.0,-484.0,-495.0,27.0,54.0,85.0,-2.125,-24.1875,-0.625,106.3125,-37.1875,135.5625,94735.25,46.34865144241327,28.397687339799663,57.658133917710224,339.95423600207954,471.85439499463985,435.0768806147421,342.64496213392306,419.3890104013868,366.68574244456414,44.37278306855513,162.66002882912935,45.82752309074292,32.451083502559,9.346416336907051,23.022553293848343,2.2845619897145464,9700.0,3300.0,1150.0,-1420.0,-266.0,-1264.0,-749.0,-709.0,-724.0,-73.75,-265.4375,-77.6875,65.875,-47.3125,74.625,94734.75,9804.35,3320.371487603306,1231.3612273204483,188.0,191.0,771.0,715.0,721.0,713.0,87.375,324.625,100.375,171.125,-17.5625,150.8125,94738.75,9591.85,3203.2712007376545,1023.3333510841845,-1420.0,-1461.0,-1264.0,-749.0,-709.0,-724.0,-73.75,-265.4375,-77.6875,61.375,-47.3125,74.625,94729.5,kitchen_sink,WASHHANDS
9703.6921875,3294.0666967975208,1098.3739284858143,-518.5625,-548.6875,-525.5,41.875,40.625,-31.53125,0.94921875,-29.017578125,-5.666015625,116.62890625,-34.017578125,127.96484375,94732.78125,9703.175,3305.260743801653,1099.5028974667498,-529.5,-643.5,-470.0,30.5,52.0,-33.5,1.5625,-23.40625,-6.40625,127.03125,-35.65625,136.125,94735.5,44.64801789007102,33.790073921531146,58.22926390208624,289.9810825309238,368.15568564259297,349.3060401387576,307.8762581339793,323.1597777191398,288.7444438091323,48.892408410472186,135.78754774861505,37.924208855057294,36.30603614357631,7.499365470049917,21.050899202477382,7.241722193137531,9700.0,3300.0,1100.0,-486.0,-709.0,-1264.0,86.0,54.0,-724.0,-73.75,-52.25,-68.875,63.6875,-35.75,77.6875,94718.75,9804.35,3336.535123966942,1197.7585097093256,188.0,191.0,-5.0,715.0,721.0,473.0,87.375,270.1875,72.0,171.125,-23.0625,150.8125,94738.75,9610.05,3202.5,970.0136317074887,-1420.0,-1350.0,-1264.0,-749.0,-709.0,-724.0,-73.75,-316.375,-68.875,63.6875,-47.0,77.6875,94718.75,kitchen_sink,WASHHANDS
9698.735937499998,3225.415484128475,820.5773166770707,-600.03125,-751.15625,15.84375,5.09375,22.90625,-10.53125,3.720703125,2.275390625,0.794921875,129.291015625,-36.701171875,87.7890625,94724.9375,9697.55,3227.817561983471,743.3734974264855,-601.5,-841.5,-50.0,-9.5,-63.0,-73.5,5.125,-23.46875,5.90625,122.34375,-37.125,86.0625,94723.375,65.10018982477528,44.95842677054362,184.55995494671564,182.90513747436438,350.01659954876055,321.41362250824244,168.84701213839858,329.1971033634762,273.21986707801653,17.248224724385206,87.91566428720328,34.87099003703587,13.039241809224393,2.723328059471728,12.325094365110191,5.530341528274256,9700.0,3250.0,650.0,-957.0,-1336.0,-50.0,76.0,-537.0,-461.0,-9.75,-149.75,-51.875,116.875,-38.3125,73.8125,94720.5,9836.05,3315.3807287753566,1396.1719728819894,-220.0,-211.0,619.0,337.0,523.0,559.0,39.9375,235.25,62.0625,151.1875,-31.375,110.0625,94731.75,9552.45,3150.992561983471,625.925022489753,-957.0,-1336.0,-558.0,-374.0,-537.0,-461.0,-30.8125,-149.75,-51.875,115.3125,-41.375,72.5625,94715.5,kitchen_sink,WASHHANDS
9633.309677419356,3268.184011536318,1783.6945167519461,-610.9677419354839,-690.1290322580645,-181.32258064516128,-16.64516129032258,27.193548387096776,-45.61290322580645,1.9616935483870968,30.149193548387096,4.842741935483871,143.04637096774192,-36.38508064516129,99.80040322580645,94725.57258064517,9640.6,3276.580728775357,1396.1719728819894,-621.0,-672.0,-294.0,-20.0,21.0,-83.0,-1.0,11.1875,9.3125,144.1875,-37.125,99.6875,94728.0,42.6252574173161,41.10590209941769,1214.1169682247507,168.25545734011476,272.3623495683014,378.8834813938426,155.94818549486166,245.2686172824724,223.47836247525993,15.517762649985672,85.7698465817754,27.882780448953007,24.258439080028673,3.800633745611325,23.038907418545755,6.140776806312555,9650.0,3300.0,650.0,-930.0,-760.0,-656.0,-152.0,117.0,-387.0,-9.75,-130.375,-48.125,116.875,-38.75,73.8125,94720.5,9707.3,3321.3807287753566,4167.427272727273,-304.0,-211.0,557.0,334.0,523.0,464.0,37.25,235.25,59.1875,180.6875,-28.4375,130.1875,94731.75,9543.6,3170.842561983471,625.925022489753,-930.0,-1332.0,-656.0,-272.0,-489.0,-387.0,-25.0,-130.375,-48.125,115.3125,-41.875,72.5625,94715.5,kitchen_sink,WASHHANDS
9600.579032258067,3237.7241159933105,3669.812041921905,-609.4193548387096,-634.0967741935484,-431.7096774193548,-2.3870967741935485,39.354838709677416,-80.16129032258064,-3.0725806451612905,-20.983870967741936,-1.5423387096774193,159.5040322580645,-37.439516129032256,115.44556451612904,94727.08870967742,9604.1,3240.9,4309.777272727273,-611.0,-644.0,-480.0,-17.0,38.0,-85.0,-4.1875,2.5,2.3125,163.25,-38.75,119.1875,94727.25,47.62703149506861,58.90611895351936,980.1705104264664,169.10229136897158,123.95976627887768,220.38136544762386,191.6181406546807,109.31744245913573,125.74474058562542,18.675958648798,151.66829466366,24.896433328352842,15.01465374056041,4.769791112623751,13.72357064065443,3.8403278869869815,9600.0,3300.0,4400.0,-372.0,-820.0,-792.0,-152.0,117.0,-334.0,-42.75,-384.75,-54.875,163.4375,-42.25,118.875,94727.25,9662.4,3321.3807287753566,4512.171561182483,-304.0,-404.0,73.0,341.0,234.0,251.0,37.25,239.5625,37.0,180.6875,-28.4375,130.25,94731.75,9473.7,3146.4,1585.2249584980818,-936.0,-838.0,-792.0,-340.0,-158.0,-334.0,-42.75,-384.75,-54.875,122.0,-45.75,84.0,94715.5,kitchen_sink,WASHHANDS
9550.2296875,3158.756078606311,4397.486940409746,-646.25,-640.25,-351.84375,-7.5625,38.15625,-89.53125,-2.4375,-30.83984375,-4.9609375,150.208984375,-40.388671875,109.95703125,94731.078125,9584.224999999999,3160.4099924868524,4384.447380742881,-671.0,-646.0,-340.5,-14.5,23.5,-105.5,-3.90625,-29.1875,-5.3125,151.875,-41.21875,113.28125,94727.25,85.11457918724477,43.053960757725605,52.528927797283956,158.90593687522676,110.6304513874618,256.2741865060834,192.3382332448282,105.8514203281367,118.45401567969387,27.436060198096015,192.9482245924069,30.39166686475996,15.529649462988415,4.09122088136918,14.211033997327059,6.003842015877242,9600.0,3150.0,4350.0,-459.0,-646.0,-792.0,-400.0,-153.0,-334.0,-51.6875,-384.75,-63.5625,122.0,-42.25,84.0,94727.25,9652.75,3240.9,4512.171561182483,-372.0,-379.0,92.0,341.0,307.0,94.0,52.75,510.75,78.1875,178.5,-31.25,130.25,94740.0,9387.7,3076.5590909090906,4309.777272727273,-942.0,-820.0,-792.0,-400.0,-153.0,-334.0,-51.6875,-384.75,-63.5625,122.0,-46.875,84.0,94724.0,kitchen_sink,WASHHANDS
9715.046774193546,3147.2107038123163,859.0644192133005,-618.1290322580645,-593.2903225806451,-364.51612903225805,23.387096774193548,15.451612903225806,-26.129032258064516,-3.8649193548387095,0.7620967741935484,-5.122983870967742,105.86693548387096,-40.27217741935484,118.46975806451613,94728.79838709677,9729.65,3178.672727272727,886.3581917955847,-635.0,-690.0,-384.0,-1.0,-65.0,46.0,-1.3125,-4.25,-13.25,105.125,-41.625,121.5,94731.0,87.4793003472667,90.94835762232807,85.0477480235156,270.4311054514605,406.18708280367457,566.7200291130086,275.8250263505658,352.83214505008635,553.2499580922101,50.134119849841575,178.6575601734325,54.1750814390226,22.82776168679339,6.927386554524472,19.372727494199573,7.133085866474246,9800.0,3200.0,900.0,-1115.0,-1365.0,-651.0,-463.0,-598.0,-1064.0,-97.0,-312.5,56.5,90.9375,-50.5,121.5,94720.0,9820.3,3269.7,979.5451031390119,-34.0,90.0,1131.0,587.0,676.0,1345.0,92.9375,387.9375,102.125,157.4375,-24.125,146.5625,94737.5,9567.95,2922.9,720.9894835666316,-1115.0,-1365.0,-1616.0,-463.0,-598.0,-1064.0,-97.0,-312.5,-91.625,50.625,-50.5,72.75,94718.5,kitchen_sink,WASHHANDS
9633.306451612903,3113.505131964809,791.5344239339219,-682.7741935483871,-541.3870967741935,-380.4193548387097,-30.0,39.25806451612903,-43.25806451612903,-3.2016129032258065,-4.320564516129032,-6.006048387096774,111.08870967741936,-41.36491935483871,118.46975806451613,94724.29838709677,9613.65,3087.6227272727274,861.3485430285989,-749.0,-612.0,-406.0,-82.0,75.0,4.0,3.375,-0.625,-8.5625,110.375,-42.1875,120.5,94721.75,95.8757387993572,84.4627078919326,150.4797869017093,318.6043219708336,446.4475092265872,562.5284451589122,325.4865076568715,383.57397963034765,533.5824189846048,43.50994770618739,164.81835230250414,57.06323328033484,22.520030286678196,6.754321471098798,22.231991020400823,5.27944889597023,9550.0,3100.0,900.0,-1238.0,-216.0,-651.0,-663.0,-598.0,-330.0,-97.0,-312.5,-91.625,59.3125,-51.0625,114.1875,94718.5,9809.15,3269.7,979.5451031390119,158.0,189.0,1131.0,601.0,676.0,1345.0,78.3125,387.9375,102.125,158.1875,-28.5625,146.8125,94734.75,9486.3,2999.3727272727274,564.8508967892533,-1238.0,-1365.0,-1447.0,-663.0,-598.0,-1064.0,-97.0,-312.5,-91.625,59.3125,-51.0625,72.75,94718.5,kitchen_sink,WASHHANDS
9713.720967741936,3123.754052252732,612.6618205752399,-697.1290322580645,-537.0967741935484,-352.741935483871,-30.580645161290324,38.935483870967744,-61.935483870967744,1.2641129032258065,11.826612903225806,-0.006048387096774193,112.6149193548387,-44.42943548387097,115.64112903225806,94725.12903225806,9729.35,3138.668181818182,585.1531766985081,-745.0,-521.0,-324.0,-82.0,15.0,-43.0,3.375,39.375,0.0625,111.0625,-46.5625,119.9375,94725.0,149.19459539708183,83.2844334319856,85.49022662604334,346.5732959452669,443.8146275821855,389.9432409759088,318.7625839809882,369.25880133802013,382.4559177634177,36.26275174305577,169.08556505453632,54.77540638360657,20.354329345824187,7.736526290635799,22.331976605295427,3.6457000743695387,9550.0,3150.0,550.0,-1302.0,-1385.0,-625.0,-663.0,-564.0,132.0,-71.6875,-333.9375,-88.9375,59.3125,-56.5625,75.875,94721.75,9913.0,3261.060743801653,861.3485430285989,158.0,189.0,764.0,601.0,671.0,916.0,78.3125,328.3125,94.125,158.1875,-28.5625,146.8125,94729.0,9486.3,2999.3727272727274,532.4048167744309,-1302.0,-1385.0,-1216.0,-663.0,-564.0,-772.0,-71.6875,-333.9375,-88.9375,59.3125,-56.5625,75.875,94718.5,kitchen_sink,WASHHANDS
9858.129032258064,3212.00355905092,574.3111982298392,-617.0,-524.3548387096774,-425.1290322580645,-0.8709677419354839,19.774193548387096,-60.29032258064516,-1.6955645161290323,8.298387096774194,-1.9516129032258065,101.78427419354838,-41.221774193548384,123.25806451612904,94728.49193548386,9865.6,3210.842561983471,563.1235501999492,-578.0,-459.0,-346.0,37.0,6.0,-12.0,-3.4375,-11.0625,-1.625,103.375,-47.375,131.3125,94729.0,51.03344454733186,32.56525817892388,40.47548777238937,334.38191737393134,426.85232015980245,385.6456700077144,305.8657376404974,357.68857121593163,323.13714256214155,36.098428599857804,160.30929960229537,49.37792372587667,22.89757446391746,11.79950606652577,24.41600579631523,3.1803327072858676,9850.0,3200.0,550.0,-163.0,-459.0,-618.0,-639.0,-622.0,-598.0,-87.8125,-333.9375,-88.9375,64.875,-56.5625,75.875,94725.0,9941.65,3280.05,667.0606066796811,-107.0,242.0,120.0,578.0,639.0,482.0,67.6875,328.3125,94.125,162.8125,-21.9375,151.625,94732.5,9763.15,3152.518181818182,532.4048167744309,-1302.0,-1385.0,-1381.0,-639.0,-622.0,-598.0,-87.8125,-333.9375,-88.9375,64.875,-56.5625,75.875,94717.75,kitchen_sink,WASHHANDS
9813.040625000001,3244.2438403925617,636.4355120698613,-550.5,-521.4375,-466.0,26.96875,32.03125,-55.53125,-0.359375,-8.869140625,-13.935546875,111.9765625,-38.435546875,127.345703125,94728.15625,9791.85,3239.222727272727,664.7051529526675,-579.0,-524.0,-499.0,43.5,11.5,-52.0,2.6875,-23.09375,-16.3125,113.625,-41.28125,135.1875,94730.0,70.58458713863993,32.45366381693887,60.093379659914014,277.80104275333224,385.8273002849349,398.9009902218845,285.41181162969053,323.5221969126095,307.84086634483,36.45340942172271,187.20819791013918,50.789298020757094,28.47355145675516,10.28684472954012,22.6670544836658,5.669581397758255,9750.0,3200.0,550.0,-163.0,-459.0,-618.0,-639.0,-622.0,-598.0,-87.8125,-468.0,-131.25,132.875,-44.1875,135.1875,94717.75,9941.65,3305.65,708.1387492414374,-107.0,242.0,279.0,578.0,639.0,468.0,67.6875,397.5625,75.6875,162.8125,-21.9375,151.625,94733.75,9707.6,3194.810743801653,546.4787345888045,-1117.0,-1153.0,-1381.0,-639.0,-622.0,-598.0,-87.8125,-468.0,-131.25,64.875,-54.25,71.8125,94717.75,kitchen_sink,WASHHANDS
9614.871666666666,3121.424466742419,495.14096798707135,-631.5666666666667,-648.0,-209.5,53.166666666666664,37.6,7.066666666666666,5.2125,-2.7395833333333335,-2.1875,111.90833333333333,-42.90833333333333,106.7875,94730.70833333333,9602.5,3112.9647763751855,404.0079898901562,-634.5,-665.0,-204.5,34.5,28.0,14.5,3.875,-20.96875,-0.0625,114.28125,-42.625,106.9375,94733.0,81.38566200434249,46.63706844491046,176.3541613196678,213.66904530029666,306.7742065316174,288.3018951700122,199.52410334616707,278.8031811029125,258.7095206828578,33.45234966748767,91.44150912695629,21.15918092696407,9.354154026819916,2.9500480952635018,6.777633411093611,5.228438207720736,9550.0,3100.0,350.0,-1101.0,-1225.0,-827.0,-380.0,-471.0,-540.0,-58.375,-135.9375,-40.375,115.375,-42.625,107.25,94723.25,9785.8,3196.481818181818,874.3969543209398,-166.0,-82.0,397.0,473.0,557.0,509.0,64.625,202.75,44.375,126.125,-38.375,120.4375,94735.25,9484.3,3053.679552750371,329.08430985438105,-1101.0,-1225.0,-827.0,-380.0,-471.0,-540.0,-58.375,-135.9375,-40.375,88.75,-50.25,94.125,94723.0,kitchen_sink,WASHHANDS
9669.185483870968,3105.725189506189,424.59897658046475,-671.3870967741935,-659.4193548387096,-94.16129032258064,-0.22580645161290322,30.032258064516128,-35.645161290322584,2.7318548387096775,-11.252016129032258,-0.28225806451612906,103.59274193548387,-43.19959677419355,95.07459677419355,94734.94354838709,9702.4,3091.2201988811,384.03199237496744,-682.0,-713.0,-163.0,7.0,13.0,-15.0,-0.75,-23.375,0.9375,102.0625,-43.0625,94.0,94735.0,97.63139624248986,42.24890340319438,81.45142020428452,185.60831113204583,312.35682311458567,268.9917095096915,173.07815376825567,288.2299410622207,203.45540844569962,18.784130003451295,78.16599671644143,21.151111026323164,13.56437075200503,1.7216013738152571,14.147294530768864,2.456038203268422,9700.0,3100.0,350.0,-1101.0,-1125.0,-202.0,-380.0,-415.0,47.0,-22.75,-140.3125,-38.375,115.375,-42.6875,107.25,94733.0,9828.05,3196.711910512819,589.8994773941813,-330.0,-82.0,392.0,373.0,557.0,415.0,62.75,202.75,44.375,126.125,-40.4375,120.4375,94738.75,9484.3,3053.679552750371,329.08430985438105,-1101.0,-1125.0,-577.0,-380.0,-415.0,-339.0,-22.75,-140.3125,-38.375,84.25,-46.4375,73.875,94729.0,kitchen_sink,WASHHANDS
9669.1234375,3191.121624652284,533.2307456183626,-684.5,-639.03125,-98.78125,-26.625,41.375,-54.0,0.96484375,26.84765625,5.658203125,97.03125,-43.623046875,93.826171875,94734.421875,9681.4,3194.6369105128188,573.087045874812,-707.5,-649.0,-145.0,-48.5,24.5,-34.5,-1.3125,-4.34375,6.90625,92.3125,-44.6875,89.25,94733.0,92.89576884039214,79.79896434176655,88.81699331115338,185.51254196362697,283.3270633003263,262.0879850263291,156.24747739899158,265.34587896530627,169.43568577163202,15.45621692093691,81.760227881784,21.728077942198386,13.526966793969788,4.646947824803021,17.30886210158727,4.010790636801934,9700.0,3100.0,600.0,-526.0,-1125.0,-710.0,-115.0,-415.0,47.0,-22.75,-140.3125,-38.375,91.5625,-49.5625,73.875,94729.0,9828.05,3333.2233283245682,659.3337659901133,-264.0,-164.0,392.0,386.0,493.0,319.0,36.375,196.625,50.4375,137.75,-29.5,133.8125,94739.5,9404.8,3078.340296552024,351.77420450181637,-984.0,-1125.0,-710.0,-268.0,-415.0,-342.0,-22.75,-140.3125,-38.375,84.25,-49.5625,73.875,94729.0,kitchen_sink,WASHHANDS
9517.296774193548,3225.0593076006185,502.2987300903396,-662.5483870967741,-588.6129032258065,-276.0,0.3225806451612903,59.38709677419355,-40.45161290322581,-1.1512096774193548,19.074596774193548,2.6875,102.15120967741936,-43.546370967741936,109.56854838709677,94732.31451612903,9470.5,3212.9733283245682,479.72956815682556,-652.0,-626.0,-265.0,13.0,19.0,-25.0,-0.4375,-2.6875,0.875,95.4375,-45.75,111.0,94731.75,119.32981531277363,50.8667019921549,100.19066697917413,181.69568674199496,221.1223910596957,260.4510190675654,151.05261491651933,208.80464193744268,164.0162265772663,23.62545069121229,103.7477540160444,20.865248470842612,15.69785327508945,5.542989372423125,16.016815340632295,4.2929048740991815,9400.0,3200.0,400.0,-945.0,-810.0,-710.0,-115.0,407.0,64.0,-54.0625,-131.5625,-33.75,91.25,-46.5,74.0625,94726.75,9686.7,3333.2233283245682,659.3337659901133,-264.0,-241.0,279.0,386.0,407.0,378.0,53.0625,196.625,50.4375,137.75,-29.5,133.8125,94739.5,9340.45,3152.2944949115495,354.1663803149421,-945.0,-1006.0,-710.0,-268.0,-348.0,-342.0,-54.0625,-131.5625,-33.75,85.625,-49.8125,74.0625,94726.75,kitchen_sink,WASHHANDS
9749.206451612901,3125.485337243402,1201.8608087580428,-603.2903225806451,-591.258064516129,-261.5483870967742,87.0,0.9354838709677419,-46.064516129032256,-2.806451612903226,20.467741935483872,-1.094758064516129,93.11693548387096,-44.63709677419355,110.08064516129032,94726.32258064517,9740.45,3139.2727272727275,1214.1639115293963,-592.0,-666.0,-385.0,56.0,-32.0,-89.0,-8.8125,-0.25,-18.6875,89.0,-45.5625,110.5,94729.5,56.06313515721297,75.64952649623277,166.96500171995953,247.89099668313716,471.87702972574925,510.7667986279503,287.75012308135217,408.12424051864986,388.48911915126365,42.3505993994093,203.3723659626135,66.96936269156602,17.50080907307904,6.695622391308312,23.94503903010446,6.4572935340548225,9750.0,3150.0,1300.0,-1107.0,-1471.0,-1205.0,-610.0,-166.0,-317.0,-77.0625,-272.5,-106.0,71.0625,-45.5625,65.4375,94716.0,9871.35,3239.6545454545453,1428.5157184306238,-8.0,111.0,793.0,693.0,729.0,636.0,81.1875,432.3125,139.5625,126.5,-31.625,145.125,94733.5,9635.65,2989.7,826.4175954914133,-1107.0,-1471.0,-1205.0,-610.0,-752.0,-711.0,-77.0625,-272.5,-106.0,65.75,-56.4375,65.4375,94716.0,kitchen_sink,WASHHANDS
9727.4703125,3148.287643219384,1141.0838361695687,-572.625,-517.21875,-391.40625,59.53125,24.25,-36.28125,-5.60546875,-7.2421875,-1.609375,80.26953125,-40.076171875,120.046875,94730.765625,9730.3,3145.7603305785124,1226.279309160981,-588.0,-481.5,-442.5,45.0,28.5,-4.0,-9.65625,-18.6875,-16.75,84.5,-43.59375,123.65625,94731.5,74.76900973015658,47.72989177171706,229.50235575595062,248.55242193873892,475.4502609157331,471.4977412031551,257.1296879228268,422.4538913568919,313.53193327870747,35.711455780557785,172.2724493701647,64.3092131750463,20.551564264668478,10.140044258993388,29.980970947446195,4.474811899092303,9650.0,3150.0,1300.0,-1136.0,-1471.0,-1243.0,286.0,-752.0,-856.0,-77.0625,-266.125,-94.1875,56.0625,-45.5625,155.25,94734.0,9871.35,3239.6545454545453,1428.5157184306238,-203.0,333.0,793.0,549.0,729.0,631.0,57.4375,347.375,139.5625,114.75,-22.0625,155.25,94735.5,9589.05,3044.5661157024797,767.2932671875845,-1136.0,-1471.0,-1243.0,-403.0,-752.0,-856.0,-77.0625,-266.125,-94.1875,47.375,-52.625,65.4375,94720.5,kitchen_sink,WASHHANDS
9689.027419354838,3192.088983694005,915.4006302012885,-488.8709677419355,-478.64516129032256,-537.7741935483871,48.096774193548384,7.32258064516129,18.225806451612904,5.532258064516129,1.3588709677419355,-4.663306451612903,84.16129032258064,-37.23790322580645,138.52620967741936,94729.34677419355,9672.15,3158.0787377911347,890.0216270800596,-493.0,-494.0,-577.0,45.0,-53.0,47.0,1.875,20.0,-7.4375,95.25,-34.625,141.9375,94732.0,71.323323486208,89.26159072605087,126.90829197155568,312.7669784291477,395.94574951518274,386.6908075519268,276.2727341883632,354.5024106261972,299.0350826327261,36.6544068198425,158.55394386958486,49.163244965908795,29.841468168410156,10.809722901489623,12.739627870529418,7.593768667838464,9650.0,3150.0,800.0,-1136.0,-1149.0,-1243.0,-462.0,-634.0,96.0,-70.0625,-319.625,-94.1875,56.0625,-52.625,155.25,94734.0,9824.2,3347.781683441891,1245.8583815141862,280.0,333.0,541.0,549.0,702.0,904.0,75.4375,361.625,129.1875,145.125,-22.0625,155.25,94735.5,9573.6,3044.5661157024797,767.2932671875845,-1136.0,-1149.0,-1243.0,-462.0,-634.0,-856.0,-70.0625,-319.625,-94.1875,47.0,-52.625,115.125,94714.5,kitchen_sink,WASHHANDS
9681.07419354839,3241.744473309497,822.365582600549,-519.4193548387096,-549.7096774193549,-378.0967741935484,30.129032258064516,19.225806451612904,-19.129032258064516,0.40524193548387094,10.588709677419354,-1.502016129032258,103.78225806451613,-40.15524193548387,122.47983870967742,94732.76612903226,9685.15,3250.69705279694,827.1636349175069,-523.0,-576.0,-431.0,57.0,-43.0,-58.0,-6.6875,7.75,-3.375,107.3125,-39.125,129.75,94733.75,68.0699063108013,68.18644889925419,82.32339919192725,314.63362547504346,327.21493380227287,403.37289239930425,268.151666280544,279.5172874412147,286.9041352014622,38.949328964880976,214.07389919417136,52.54898628271908,26.799714662309054,7.847004984781314,24.075680303087005,10.51287612959123,9600.0,3250.0,850.0,-1056.0,-1122.0,-377.0,-590.0,-459.0,-452.0,-24.3125,-330.4375,-90.4375,47.0,-51.9375,140.6875,94714.5,9781.55,3347.781683441891,967.9829156145976,280.0,94.0,541.0,470.0,595.0,904.0,82.4375,500.1875,113.0,145.125,-25.5,147.0625,94746.75,9573.6,3079.7363636363634,691.5184211753384,-1056.0,-1122.0,-1180.0,-590.0,-459.0,-452.0,-75.0625,-330.4375,-90.4375,47.0,-51.9375,64.375,94714.5,kitchen_sink,WASHHANDS
9669.89193548387,3117.316884930223,1007.8957068982621,-618.8064516129032,-620.3548387096774,-319.2258064516129,46.903225806451616,-29.129032258064516,-5.451612903225806,1.3850806451612903,-15.92741935483871,-7.76008064516129,102.94556451612904,-43.667338709677416,115.90927419354838,94731.62096774194,9714.2,3099.7,955.2435490727557,-601.0,-660.0,-413.0,65.0,-52.0,-18.0,2.375,-21.875,-9.25,97.0625,-45.375,116.875,94729.5,147.70996135263093,89.8050723755258,313.88281183406906,196.30561536455323,272.14022713631743,307.69267239432486,170.95171927354414,244.88687754900005,206.9975585539883,27.799295071127485,133.7435133714963,27.9557457979264,22.83344781336579,8.43349267641339,18.884895575935243,4.779239378003372,9750.0,3050.0,950.0,-924.0,-862.0,-771.0,76.0,-494.0,-396.0,-55.5625,-322.125,-56.25,74.9375,-51.4375,83.5,94739.75,9860.1,3250.1163443708683,1684.8057255026529,-265.0,-104.0,396.0,436.0,434.0,495.0,43.625,272.375,47.8125,153.9375,-24.875,143.5,94739.75,9410.8,2993.8545454545456,670.9474714520289,-1023.0,-1147.0,-771.0,-191.0,-494.0,-396.0,-55.5625,-322.125,-56.25,74.9375,-56.0625,83.5,94727.25,kitchen_sink,WASHHANDS
9523.005000000001,3112.7749186075625,734.6591091544991,-558.6666666666666,-656.9,-403.6333333333333,46.56666666666667,-32.46666666666667,-21.566666666666666,2.9458333333333333,23.65,0.5270833333333333,117.7,-38.75833333333333,119.49583333333334,94737.13333333333,9515.2,3090.2547520661155,726.2390555547364,-539.5,-666.5,-413.0,63.0,-54.0,-1.5,8.6875,38.03125,3.1875,120.40625,-39.4375,124.5625,94739.75,74.9630982205751,88.9094670163866,91.88821153242804,201.17385401743903,169.8687830305376,239.7112463135499,208.0566374038956,147.89179020214544,150.9417981765873,27.7947940217704,163.72445148153966,25.083028522558948,21.646244796571608,7.799510465775856,16.625574702710345,6.306036152292736,9500.0,3050.0,650.0,-1052.0,-1059.0,-875.0,200.0,-377.0,-361.0,-55.5625,-322.125,-45.75,84.25,-31.875,83.5,94739.75,9702.0,3254.950864012021,980.1447968500619,-195.0,-312.0,134.0,436.0,247.0,227.0,41.875,291.75,47.8125,153.9375,-24.875,137.125,94745.75,9410.8,2993.8545454545456,620.44570526243,-1052.0,-1059.0,-875.0,-558.0,-377.0,-361.0,-55.5625,-322.125,-45.75,84.25,-50.0625,83.5,94728.0,kitchen_sink,WASHHANDS
9546.051612903228,3185.470352148518,789.2693624727414,-545.741935483871,-638.1935483870968,-387.64516129032256,89.74193548387096,-17.70967741935484,-8.0,2.467741935483871,3.6955645161290325,1.9173387096774193,115.4274193548387,-40.542338709677416,119.29838709677419,94735.5,9545.05,3177.550864012021,810.0134020129124,-542.0,-655.0,-349.0,114.0,-23.0,7.0,4.375,21.8125,0.3125,110.8125,-42.75,121.6875,94735.25,59.48591357606011,47.78314130846645,113.10350451679628,175.16543946451225,140.35821300155274,229.87482802416577,212.59303339823336,131.26873035834726,121.38945588476786,29.352095995252473,184.28456662264395,21.46942707021122,20.624186200953794,7.891902942665452,12.466744405089404,6.453358298849781,9550.0,3150.0,650.0,-428.0,-697.0,-875.0,-51.0,-285.0,-271.0,-64.9375,-334.0,-37.3125,84.5625,-49.875,96.875,94732.0,9670.9,3254.950864012021,958.4118181001547,-195.0,-384.0,32.0,391.0,196.0,227.0,55.375,428.125,43.375,150.4375,-26.5625,136.625,94745.75,9427.25,3082.7545454545457,620.44570526243,-1052.0,-898.0,-875.0,-558.0,-285.0,-271.0,-64.9375,-334.0,-37.3125,84.5625,-50.875,96.875,94727.5,kitchen_sink,WASHHANDS
9622.001612903226,3150.100636193985,871.0319963050291,-605.5483870967741,-637.3225806451613,-409.5806451612903,39.41935483870968,-27.35483870967742,-38.83870967741935,-2.2923387096774195,-4.137096774193548,0.592741935483871,114.52620967741936,-41.65725806451613,118.91129032258064,94728.39516129032,9626.05,3135.3,868.2260743522836,-591.0,-634.0,-440.0,18.0,-24.0,-71.0,0.75,-1.8125,1.9375,112.75,-42.5625,120.9375,94727.5,59.11628016583229,46.81419237426878,36.1382639238905,202.11033928849815,123.40728965415676,246.03357144822712,226.51972308440727,115.2962989828372,123.95028486566528,27.352061294470143,175.2491830248394,19.585063338707453,17.897194657624507,7.1586353551392365,11.499827605065937,4.643891235424405,9650.0,3150.0,850.0,-428.0,-768.0,-249.0,-51.0,65.0,-142.0,8.625,-334.0,-5.4375,84.5625,-49.875,96.875,94722.75,9723.65,3249.7963185574754,958.4118181001547,-257.0,-417.0,32.0,391.0,186.0,229.0,55.375,428.125,43.375,144.9375,-29.8125,133.625,94735.25,9494.55,3069.8,810.0134020129124,-1193.0,-898.0,-854.0,-530.0,-285.0,-271.0,-64.9375,-334.0,-36.0625,84.5625,-51.4375,96.875,94722.75,kitchen_sink,WASHHANDS
9800.229032258068,3152.650293255132,700.8684353051531,-538.8709677419355,-560.3548387096774,-523.9354838709677,-0.8064516129032258,52.645161290322584,2.4193548387096775,7.116935483870968,32.28024193548387,2.368951612903226,135.03629032258064,-36.475806451612904,129.22379032258064,94726.5,9800.0,3144.172727272727,734.0083517620021,-438.0,-668.0,-530.0,26.0,16.0,-47.0,14.375,62.625,11.4375,141.8125,-36.6875,130.5,94728.5,46.1735183378842,32.64711756089811,56.051766253134275,294.3524805326073,448.15819739515325,452.3783030078455,295.4596892250942,403.0896962535838,390.76325093279934,51.724469703700514,190.9551989007662,51.312846006848815,26.859354817199847,8.171289254331716,12.126017721394351,4.651164728681767,9800.0,3150.0,750.0,-1127.0,-1366.0,-1461.0,-219.0,-652.0,-701.0,-81.5,-379.4375,-128.9375,163.9375,-48.625,125.25,94720.75,9892.75,3216.55,758.1033834380103,4.0,319.0,465.0,439.0,1022.0,751.0,79.6875,493.3125,72.625,168.75,-17.4375,147.3125,94732.0,9729.05,3113.4,600.2377811671452,-1127.0,-1366.0,-1461.0,-1047.0,-652.0,-701.0,-81.5,-379.4375,-128.9375,74.6875,-48.625,98.75,94720.75,kitchen_sink,WASHHANDS
9730.34193548387,3177.046041055718,667.0401325449675,-520.5806451612904,-608.0322580645161,-560.741935483871,-59.225806451612904,37.516129032258064,-66.7741935483871,-5.266129032258065,26.344758064516128,3.441532258064516,136.69556451612902,-31.481854838709676,125.78629032258064,94728.33870967742,9734.9,3185.9,660.7029625406606,-532.0,-661.0,-590.0,-5.0,46.0,-81.0,-4.0625,30.125,11.4375,147.6875,-32.8125,129.25,94727.75,79.47958762765674,28.753821203525636,42.772693394231595,346.42418835810224,465.79619891614743,389.8234615602243,345.4507885529109,390.11125515402586,321.35377282961525,45.86266287260399,227.01619164385866,55.17088022558269,35.347942176724125,8.005470030124766,19.164466183875387,4.822062312562598,9800.0,3200.0,650.0,-1011.0,-1366.0,-1461.0,-408.0,-530.0,-183.0,-16.375,-382.4375,-130.6875,163.9375,-33.4375,125.25,94721.25,9838.1,3211.05,751.626472698825,441.0,319.0,140.0,907.0,1022.0,602.0,79.6875,561.875,73.375,186.9375,-14.875,147.3125,94735.25,9584.85,3114.3090909090906,600.2377811671452,-1011.0,-1366.0,-1461.0,-1047.0,-530.0,-651.0,-79.5625,-382.4375,-130.6875,74.6875,-46.0,77.875,94721.25,kitchen_sink,WASHHANDS
9682.025000000001,3160.6511492768595,667.105995467663,-558.34375,-625.875,-369.0625,-6.75,20.1875,-50.53125,-12.44921875,-32.478515625,-16.99609375,140.439453125,-34.275390625,115.39453125,94730.1640625,9678.625,3171.495041322314,659.6561440720525,-587.0,-661.5,-404.5,-21.0,16.5,-146.5,-5.6875,-91.03125,-17.78125,138.71875,-33.96875,121.90625,94728.0,53.44733313603987,36.86761457208962,35.013027798851525,321.81447363900276,372.2426151263837,417.8917854598708,321.30168719374694,291.591565599954,267.3546616780185,31.91424464822462,265.10333813717915,66.4992135108036,32.63710026338998,8.810588893882523,23.653573550494848,3.851376678351312,9650.0,3200.0,650.0,-1011.0,-1224.0,-1098.0,-408.0,-530.0,-183.0,-16.375,-396.3125,-131.875,80.5625,-28.0,76.375,94725.5,9781.1,3211.05,733.4219173292333,441.0,283.0,524.0,907.0,779.0,605.0,41.6875,631.625,98.3125,193.125,-14.875,145.0625,94735.25,9584.85,3093.8309917355373,608.7973051661563,-1011.0,-1224.0,-1098.0,-466.0,-530.0,-471.0,-76.875,-396.3125,-131.875,80.5625,-50.25,76.375,94725.5,kitchen_sink,WASHHANDS
9723.099999999999,3134.2147160757136,702.3618391255493,-600.0967741935484,-612.6774193548387,-304.2903225806452,-23.516129032258064,34.225806451612904,-67.7741935483871,-7.645161290322581,10.723790322580646,-10.881048387096774,146.24395161290323,-38.23991935483871,111.40927419354838,94731.93548387097,9740.35,3130.5309917355376,694.7026719705439,-596.0,-662.0,-386.0,-35.0,-3.0,-139.0,-0.375,-36.875,-2.1875,140.1875,-38.3125,117.375,94733.75,56.47755011211663,26.55586507038284,60.13530506981698,251.64967114869694,290.826338456105,421.2350249404234,247.427143615751,186.71381125087655,258.0677830438377,27.286354701384806,271.66000636048653,68.49319718888813,25.517515200137478,6.857821279503637,23.75999153157772,3.2736115007838844,9750.0,3150.0,700.0,-1108.0,-1034.0,-1221.0,-35.0,-106.0,-565.0,-10.1875,-506.1875,-166.0,122.625,-34.0625,75.0625,94728.0,9812.05,3175.05,798.331256901097,-90.0,-49.0,524.0,512.0,376.0,606.0,29.6875,631.625,98.3125,193.125,-24.1875,144.0625,94735.5,9603.6,3073.6,608.7973051661563,-1108.0,-1034.0,-1221.0,-578.0,-317.0,-565.0,-69.6875,-506.1875,-166.0,83.6875,-50.25,75.0625,94725.5,kitchen_sink,WASHHANDS
9595.367741935484,3056.5475073313787,434.4805977041856,-696.0967741935484,-593.1612903225806,-341.48387096774195,-32.064516129032256,23.774193548387096,-9.548387096774194,3.6693548387096775,-13.695564516129032,-4.683467741935484,97.82661290322581,-42.778225806451616,117.5383064516129,94721.6370967742,9587.55,3059.113636363636,396.0985191684311,-694.0,-588.0,-366.0,-30.0,31.0,-1.0,5.0,4.6875,-6.1875,97.8125,-44.6875,119.5625,94723.5,88.21697828686099,40.51963314958231,98.11745687298286,163.6979647274638,248.26062874516822,249.25005796960102,190.86503704343392,233.2278870800573,177.63048512941643,21.048822175755088,107.34820889809495,17.032688666177304,12.836742407837017,4.66399212913628,11.635856013258772,5.717968283430976,9650.0,3100.0,350.0,-589.0,-633.0,-485.0,-456.0,-402.0,-324.0,-53.375,5.3125,-0.1875,114.75,-45.8125,119.5625,94713.0,9777.6,3113.65,673.3211367691235,-433.0,-31.0,349.0,254.0,517.0,414.0,73.5,192.0,27.375,116.375,-34.375,131.875,94728.25,9464.25,2988.1,319.63785462680323,-1052.0,-1039.0,-740.0,-456.0,-402.0,-324.0,-53.375,-236.5,-35.1875,73.0,-49.5625,92.4375,94713.0,kitchen_sink,WASHHANDS
9560.1,3112.080767552895,424.01126340167616,-582.1612903225806,-618.8387096774194,-278.5806451612903,36.45161290322581,20.870967741935484,-28.258064516129032,-4.649193548387097,-4.241935483870968,-0.18346774193548387,98.4375,-39.493951612903224,109.8366935483871,94724.2258064516,9536.2,3053.45,421.69442140028866,-594.0,-571.0,-368.0,88.0,50.0,4.0,-0.5625,-5.625,-4.75,99.0,-40.0625,118.0,94726.0,64.99209054441415,109.18029225260284,63.953669519427685,258.04535735333997,271.4885015090195,485.5078972370788,276.5588350556023,284.81792335168376,320.07030141745787,26.44779979339095,194.65775370796055,31.155924795543967,19.920839433869247,4.809640785884879,20.084195677064685,6.45992609565236,9500.0,3050.0,500.0,-594.0,-633.0,-1276.0,104.0,-890.0,-677.0,-64.8125,-302.3125,-0.1875,114.75,-45.8125,72.5,94715.75,9688.3,3306.7162283996995,528.5360322553744,49.0,-51.0,833.0,641.0,516.0,748.0,34.875,500.3125,74.125,140.4375,-27.1875,134.0,94731.5,9464.25,2988.1,319.63785462680323,-1052.0,-1378.0,-1276.0,-553.0,-890.0,-677.0,-64.8125,-302.3125,-47.3125,66.9375,-45.9375,72.5,94713.0,kitchen_sink,WASHHANDS
9511.656451612902,3167.25387169482,436.5265977948137,-553.5483870967741,-652.8709677419355,-174.41935483870967,72.16129032258064,23.032258064516128,-8.96774193548387,-8.044354838709678,16.038306451612904,0.11693548387096774,98.59677419354838,-39.32459677419355,101.7258064516129,94726.54838709677,9528.7,3175.413636363636,455.94988298436857,-592.0,-607.0,-113.0,90.0,91.0,15.0,-1.875,-5.0625,1.5625,99.0,-40.0625,103.375,94726.75,105.57444430506173,87.92440121718032,60.47648119196237,275.54610487898117,299.4088333071781,489.1908130912755,281.4055314280079,303.0089639896228,359.2910133277265,31.246708966490523,213.81750863605149,36.95461652886821,20.53851716078789,4.34281073042823,16.580388746788287,5.994587612601995,9400.0,3250.0,500.0,-594.0,-447.0,-1276.0,104.0,252.0,-677.0,-64.8125,-302.3125,-65.25,66.9375,-38.5625,72.5,94731.5,9688.3,3306.7162283996995,528.5360322553744,49.0,-51.0,833.0,641.0,516.0,748.0,40.5625,500.3125,74.125,140.4375,-27.1875,134.0,94735.5,9342.2,3028.5272727272727,319.9404965492372,-1002.0,-1378.0,-1276.0,-553.0,-890.0,-677.0,-64.8125,-302.3125,-65.25,66.9375,-45.5,72.5,94715.75,kitchen_sink,WASHHANDS
9506.829032258067,3116.0904114825576,378.4113957280527,-600.3225806451613,-655.0967741935484,-321.1290322580645,24.870967741935484,9.290322580645162,-6.032258064516129,-8.63508064516129,-2.5463709677419355,-2.6431451612903225,108.9133064516129,-38.74596774193548,113.79032258064517,94730.29032258065,9553.4,3101.2772727272727,365.4018655807683,-594.0,-621.0,-314.0,28.0,51.0,6.0,-9.125,-27.4375,-0.4375,110.5,-38.5625,111.5,94730.0,94.79051092997435,61.66057378623994,42.555384386199655,225.70443609534632,279.2946299565758,294.80691329925133,231.48819148219837,248.78413582171822,263.5092008350585,31.245375060984834,149.50846806401793,37.91483464054529,11.992387748538249,3.6713961738814564,12.738409237125063,3.145828437651962,9550.0,3100.0,350.0,-1050.0,-1106.0,-894.0,416.0,51.0,-445.0,-66.8125,-288.0625,-73.4375,93.0625,-44.6875,94.375,94726.75,9634.8,3268.9162283997,466.42851418244425,-190.0,-118.0,180.0,429.0,479.0,451.0,45.25,314.0,72.875,127.625,-32.875,132.6875,94735.5,9342.2,3028.5272727272727,319.9404965492372,-1050.0,-1106.0,-894.0,-431.0,-377.0,-445.0,-66.8125,-288.0625,-73.4375,88.1875,-44.6875,94.375,94725.75,kitchen_sink,WASHHANDS
9506.84375,3067.899620714091,383.9127658370617,-647.21875,-619.15625,-292.125,-10.6875,25.65625,5.34375,-2.8828125,-18.130859375,-0.78515625,103.2109375,-40.669921875,113.400390625,94730.6953125,9518.1,3070.809345331603,387.2084971741786,-690.5,-622.5,-296.0,-7.0,29.0,12.0,-2.59375,-28.90625,-4.875,106.34375,-39.25,118.65625,94730.0,88.28826206094404,40.89710080147414,29.979939152884533,192.50818740443725,234.96205724919545,313.8770819614665,190.5864358135936,205.42004321201426,226.04846887837587,29.55200083798432,103.90458309889604,32.553360109369386,16.496461848779145,5.788663715804136,15.208844017032504,5.445749443003024,9550.0,3050.0,400.0,-745.0,-1039.0,-894.0,-64.0,-53.0,12.0,-66.8125,-200.875,-73.4375,75.25,-50.8125,82.125,94735.5,9634.8,3139.9616658698174,443.11457723106776,-190.0,-118.0,287.0,429.0,479.0,491.0,54.0,314.0,72.875,127.625,-32.875,132.6875,94736.75,9341.6,3006.1273683491563,324.50439220282874,-1050.0,-1039.0,-894.0,-431.0,-368.0,-469.0,-66.8125,-200.875,-73.4375,75.25,-50.8125,82.125,94721.25,kitchen_sink,WASHHANDS
9799.03064516129,3085.5266728872307,626.7412031087732,-640.2258064516129,-619.483870967742,-325.93548387096774,-12.451612903225806,-15.451612903225806,-30.225806451612904,7.175403225806452,-4.616935483870968,-17.058467741935484,107.2116935483871,-42.16935483870968,116.18346774193549,94727.58064516129,9805.1,3077.9677685950414,618.5536072821445,-662.0,-629.0,-343.0,-35.0,-62.0,-60.0,1.375,12.875,-28.8125,105.6875,-42.3125,119.0,94725.5,39.09041800198477,36.51884427747433,44.57587665535154,221.95220351499395,429.8376337616909,512.1752262317959,231.16687171964145,394.86823445377973,442.79978242070985,50.84608724743386,157.00147436769197,50.44765731956499,17.00322945289973,5.525207234716101,13.841240230398121,3.6642342860720305,9800.0,3050.0,600.0,-1150.0,-1375.0,-1487.0,-439.0,-687.0,-1030.0,4.3125,-392.0,-151.5625,76.625,-53.9375,82.5625,94724.5,9868.8,3154.2045454545455,746.9695310164857,39.0,99.0,837.0,447.0,706.0,934.0,115.5,296.125,80.9375,143.0,-31.5625,136.0625,94734.5,9701.1,3035.263223140496,572.011051949747,-1150.0,-1375.0,-1487.0,-439.0,-687.0,-1030.0,-74.875,-392.0,-151.5625,76.625,-53.9375,82.5625,94724.5,kitchen_sink,WASHHANDS
9793.715,3141.8825757575764,649.633775821199,-623.3,-594.1333333333333,-318.93333333333334,-17.466666666666665,60.43333333333333,-18.6,-12.266666666666667,-7.73125,-6.066666666666666,123.29375,-38.15,116.17083333333333,94727.68333333333,9793.2,3138.1295454545457,618.3401278202551,-651.0,-683.5,-354.5,-58.0,2.5,-65.5,-3.9375,-28.84375,-2.75,121.25,-38.0625,120.75,94727.5,24.55672233969675,38.28029784028033,72.50777316027846,229.28346407133623,394.71287978892246,336.136459700863,214.32375338344514,333.3720799319597,298.777809266928,37.884127916430984,228.78799038568397,68.03114765315772,15.767822684816934,4.55174393445277,17.221662235210577,3.8679347900694863,9800.0,3150.0,600.0,-1071.0,-699.0,-951.0,-304.0,-519.0,-443.0,-83.0625,-440.5,-0.9375,100.4375,-42.3125,127.0625,94724.5,9850.1,3254.3,790.5808585366148,39.0,99.0,355.0,447.0,706.0,541.0,72.5,386.375,103.4375,152.0625,-30.75,136.9375,94734.5,9744.05,3071.5045454545457,572.011051949747,-1071.0,-1261.0,-951.0,-304.0,-519.0,-443.0,-83.0625,-440.5,-158.0625,100.4375,-47.8125,82.5625,94722.25,kitchen_sink,WASHHANDS
9693.281666666666,3212.6163636363635,762.0308147703395,-562.6,-600.4666666666667,-437.8666666666667,-0.9,52.666666666666664,-26.966666666666665,-4.39375,38.39791666666667,3.6729166666666666,137.4625,-33.725,119.7625,94728.60833333334,9755.525000000001,3219.75,786.6075018976662,-592.5,-606.0,-484.5,-29.5,15.5,-5.0,0.8125,26.125,7.21875,135.0625,-35.59375,130.9375,94727.5,109.16808416645729,57.55242666267025,78.50607912878301,248.3760497088347,346.01322810405463,318.50867290019545,234.7893186197597,266.53347248333176,283.15591943776076,39.91029525779853,236.5915676940225,68.03500201177931,38.72787744479822,8.363840351838052,20.251519206529018,4.644093084199826,9800.0,3150.0,800.0,-621.0,-699.0,-585.0,-450.0,-419.0,-473.0,-83.0625,-440.5,-158.0625,63.0,-47.8125,132.125,94727.5,9826.05,3305.1409090909087,885.1958780641069,67.0,-82.0,164.0,424.0,518.0,541.0,69.875,410.3125,103.4375,202.1875,-20.3125,142.75,94736.5,9491.35,3117.85,612.8532493427153,-1071.0,-1119.0,-1156.0,-450.0,-419.0,-473.0,-83.0625,-440.5,-158.0625,63.0,-47.8125,81.6875,94722.25,kitchen_sink,WASHHANDS
9544.862903225809,3232.160757131432,856.8258337707206,-475.6774193548387,-703.1935483870968,-256.741935483871,46.193548387096776,2.870967741935484,-46.61290322580645,-1.530241935483871,-23.953629032258064,-7.542338709677419,135.15927419354838,-30.719758064516128,104.54435483870968,94725.83870967742,9526.45,3226.9,860.5147212716649,-526.0,-698.0,-306.0,62.0,17.0,-11.0,-0.625,1.375,-3.6875,122.25,-27.25,100.4375,94722.25,81.78994943119218,40.49011789666673,58.14579674941657,268.92705170693586,307.985434650714,451.1166861424315,243.40246771617288,253.7452452014926,237.01148740364957,33.612853564242094,254.1891263818461,60.0784521547156,41.120525461712084,8.192315234282031,28.38665414832398,6.857036649523117,9500.0,3200.0,800.0,-541.0,-1129.0,-1156.0,-450.0,-398.0,48.0,-20.0,-489.9375,-156.0,63.0,-40.75,132.125,94717.0,9771.35,3305.1409090909087,947.338116283956,67.0,-103.0,867.0,424.0,518.0,455.0,69.875,544.375,127.625,202.1875,-20.3125,142.75,94736.5,9448.15,3166.490909090909,759.9709504712823,-1039.0,-1129.0,-1156.0,-450.0,-419.0,-473.0,-69.25,-489.9375,-156.0,63.0,-47.5625,62.75,94717.0,kitchen_sink,WASHHANDS
9672.5484375,3091.7228153174306,577.6708519088951,-705.0,-591.71875,-309.9375,18.3125,16.0,-7.3125,3.271484375,9.9609375,-9.93359375,99.7265625,-45.68359375,114.087890625,94723.5625,9614.875,3107.2756761833207,602.6630969110264,-741.0,-605.5,-325.0,1.5,55.5,-21.0,9.21875,18.0,-8.78125,101.53125,-45.71875,113.8125,94723.5,131.8312701440839,41.26674416288895,70.79590555726939,214.40028887799508,255.45219038516902,303.8487460626931,239.47556108053848,232.50626075510866,199.88487614043595,20.444041257226207,118.22935818396691,26.097000051123633,15.017435683097423,7.03571206983608,10.35669123175492,3.6846455600540207,9600.0,3100.0,500.0,-832.0,-965.0,53.0,-534.0,-390.0,-336.0,-46.625,-270.625,-71.0625,73.5625,-47.9375,89.75,94720.25,9896.9,3142.6,687.4365386606867,-166.0,-147.0,338.0,495.0,422.0,446.0,35.0,198.1875,42.0,126.0,-35.3125,132.5,94729.5,9499.8,2988.413636363636,476.29515299425094,-1168.0,-965.0,-1005.0,-534.0,-390.0,-336.0,-46.625,-270.625,-71.0625,73.5625,-59.8125,89.75,94718.0,kitchen_sink,WASHHANDS
9689.583870967741,3114.976216505505,593.0479026998414,-682.3225806451613,-649.3548387096774,-189.8709677419355,17.903225806451612,9.064516129032258,2.4838709677419355,3.443548387096774,-10.84475806451613,-5.209677419354839,102.42338709677419,-43.185483870967744,103.26209677419355,94723.79032258065,9713.6,3103.6013523666415,609.2746236831127,-653.0,-633.0,-159.0,91.0,54.0,-28.0,2.75,-4.9375,-2.375,101.6875,-43.6875,101.875,94723.0,87.20693721172333,57.24352502303106,58.59929340298593,229.09043150348205,190.50678874816978,299.0104504233349,273.519329583695,177.95466379275197,198.7921646624504,14.27239974528626,121.47372494418089,24.972664995466673,11.236863970661979,3.8425212762019307,15.720577837354535,4.453976114193525,9700.0,3100.0,600.0,-520.0,-760.0,53.0,171.0,-193.0,-162.0,-22.9375,-270.625,-71.0625,96.5,-43.6875,81.5625,94718.0,9859.2,3236.521752510921,687.4365386606867,-166.0,-276.0,373.0,495.0,324.0,373.0,33.0,198.1875,42.0,126.0,-35.3125,128.625,94729.5,9514.35,3031.5648760330578,492.3934191424787,-1168.0,-965.0,-1005.0,-539.0,-347.0,-336.0,-22.9375,-270.625,-71.0625,87.0,-49.0625,81.5625,94718.0,kitchen_sink,WASHHANDS
9619.187096774194,3144.2301818526767,564.5196120644955,-694.0967741935484,-635.3870967741935,-227.25806451612902,-23.387096774193548,15.32258064516129,8.741935483870968,2.215725806451613,2.6713709677419355,4.588709677419355,110.23790322580645,-42.55846774193548,108.26814516129032,94723.04838709677,9651.0,3148.661772845325,560.3999703239889,-663.0,-608.0,-254.0,12.0,43.0,-10.0,1.875,7.5,3.875,111.4375,-43.1875,113.4375,94723.0,124.90079261006974,51.19762358861278,41.02372713517118,225.55802724778823,175.21333233506232,287.45665965984455,237.10035532369758,163.83475152253752,200.42687240685993,17.315251275892933,107.4273955008659,13.029001846377305,15.437798743354659,3.665468630647119,17.642597550244478,2.9800862367546723,9700.0,3200.0,550.0,-520.0,-551.0,-742.0,171.0,170.0,-323.0,-46.375,-205.1875,-0.5625,96.5,-47.3125,81.5625,94721.25,9796.8,3236.521752510921,648.2443633777032,-287.0,-269.0,373.0,402.0,297.0,373.0,40.8125,251.0625,27.3125,133.9375,-33.1875,129.4375,94728.25,9399.8,3055.298661470667,492.3934191424787,-1235.0,-943.0,-742.0,-539.0,-302.0,-323.0,-46.375,-205.1875,-16.125,87.0,-48.0625,81.5625,94718.0,kitchen_sink,WASHHANDS
9230.815151515151,2977.6223140495867,1259.4622350220898,-645.2121212121212,455.45454545454544,172.63636363636363,20.96969696969697,-67.27272727272727,-111.54545454545455,3.278409090909091,0.2159090909090909,16.47159090909091,122.15719696969697,-43.55113636363637,-59.128787878787875,94722.0303030303,9181.25,2959.3318181818186,1122.4,-728.0,540.0,264.0,5.0,-82.0,-72.0,-0.0625,12.5625,14.0625,120.9375,-45.125,-56.75,94722.0,148.79552007539613,78.71014615605539,315.7775823559521,331.8119532935558,416.108766648599,379.71484516194994,147.6912922383385,207.1426550603582,179.76774789104462,70.93973545987099,101.78850105967693,77.47333539983839,12.818825812756916,16.81375935212397,29.556710004622445,6.41676197784389,9050.0,2900.0,1050.0,-1002.0,360.0,-398.0,-61.0,-103.0,-134.0,-144.0625,-300.5,-173.9375,116.4375,-45.125,-104.375,94727.5,9476.15,3090.5318181818184,2124.408120843404,267.0,1154.0,704.0,350.0,262.0,105.0,110.6875,219.5,142.5,146.0,-4.8125,-14.25,94727.5,9030.65,2857.6,1003.2330578512398,-1002.0,-353.0,-750.0,-319.0,-563.0,-580.0,-144.0625,-300.5,-173.9375,100.625,-63.9375,-104.375,94710.75,Kitchen,GETPLATE
9232.1484375,2951.653409090909,1168.8579669118435,-680.40625,355.21875,76.125,-0.9375,-122.4375,-116.0,-19.9609375,22.11328125,11.06640625,125.265625,-46.853515625,-70.52734375,94723.9921875,9263.8,3023.840909090909,1122.6830578512395,-743.0,283.5,-18.5,29.0,-119.0,-98.5,-10.5625,23.09375,13.25,125.84375,-51.59375,-73.3125,94726.0,136.49014054217176,131.81540143695304,133.7624410422336,359.1522149563671,391.52643666148356,386.69282215949835,177.4180296871333,192.30066134789737,144.12069314830674,56.20276634704455,116.84346913547157,77.74498534533122,17.745029972070416,19.692018870632868,37.60552671471213,3.783178160748941,9350.0,3050.0,1050.0,-866.0,-353.0,-398.0,80.0,-180.0,-134.0,-144.0625,-300.5,-173.9375,148.0625,-45.125,-116.1875,94726.75,9400.25,3090.5318181818184,1381.2928036065368,267.0,1154.0,704.0,350.0,262.0,115.0,110.6875,219.5,142.5,148.0625,-4.8125,-13.75,94727.5,9030.65,2698.15,1003.2330578512398,-1277.0,-353.0,-439.0,-346.0,-563.0,-482.0,-144.0625,-300.5,-173.9375,90.75,-74.5,-116.1875,94717.5,Kitchen,GETPLATE
9171.636363636364,2875.789393939394,1196.69879407158,-869.8787878787879,62.0,-214.15151515151516,-16.363636363636363,-56.121212121212125,-77.51515151515152,31.017045454545453,23.630681818181817,-7.672348484848484,145.14772727272728,-60.672348484848484,-11.9375,94726.23484848485,9294.7,2853.95,1202.6079366163513,-865.0,167.0,-300.0,10.0,-70.0,-76.0,7.1875,21.0625,-10.75,143.625,-62.5625,-32.4375,94726.0,230.33666605669546,123.05739118241216,142.6204979842279,144.22308188526844,302.53419228245923,305.11382314762074,126.2591130824371,139.1641920484032,80.1510765726673,55.95395025380855,67.17385828740157,44.94955948641989,51.387840591806544,12.627736305255814,118.43506140299523,4.886180845770626,9350.0,2750.0,1350.0,-866.0,-398.0,-288.0,-346.0,-180.0,-50.0,-38.125,-115.8125,-81.75,148.0625,-74.5,-163.125,94725.5,9400.25,3089.75,1381.2928036065368,-653.0,472.0,538.0,139.0,259.0,115.0,146.0625,197.9375,83.125,222.25,0.0,179.3125,94732.75,8715.8,2698.15,914.3,-1277.0,-485.0,-553.0,-346.0,-288.0,-213.0,-38.125,-115.8125,-81.75,0.0,-74.5,-163.125,94717.5,dish_cabinet,GETPLATE
8865.367647058823,3040.766176470588,1010.8353273809337,-872.9411764705883,-71.73529411764706,-209.05882352941177,-10.764705882352942,-37.794117647058826,-92.32352941176471,21.387867647058822,-2.073529411764706,16.19301470588235,173.19485294117646,-60.27205882352941,24.159926470588236,94727.89705882352,8810.0,3098.525,941.7249999999999,-864.5,-14.5,-283.5,11.0,-16.5,-73.0,16.28125,7.65625,-12.96875,187.15625,-61.25,63.90625,94730.0,196.21067754374312,169.8973441034982,142.01047190625323,207.21748802653823,441.70402189588646,243.43313949549798,193.72646427115163,205.31465569495336,100.27499177284716,70.58865345804402,55.89014410429722,92.97828763484166,53.03291431850678,12.621107282718482,111.31075672326119,4.2875425817564,8650.0,3200.0,900.0,-865.0,-398.0,-553.0,-601.0,-512.0,-31.0,-121.3125,-145.5625,-81.75,0.0,-62.5625,-163.125,94723.0,9340.9,3220.4,1369.759745755297,-572.0,729.0,223.0,326.0,278.0,51.0,146.0625,112.3125,273.625,228.375,0.0,179.3125,94732.75,8639.4,2716.6,870.95,-1474.0,-972.0,-553.0,-601.0,-512.0,-433.0,-121.3125,-145.5625,-81.75,0.0,-82.3125,-163.125,94721.5,Kitchen,GETPLATE
8887.25303030303,3102.8409090909095,971.6060606060605,-851.8484848484849,149.36363636363637,-87.39393939393939,-4.787878787878788,-77.27272727272727,-78.21212121212122,-24.231060606060606,16.445075757575758,25.679924242424242,140.29166666666666,-61.10227272727273,-52.80492424242424,94719.0303030303,8874.8,3154.85,944.05,-816.0,236.0,-107.0,38.0,-49.0,-50.0,-5.875,25.375,-4.625,118.4375,-58.75,-92.125,94721.5,173.04401532711358,110.43278035652605,78.76601896358108,208.05965508900942,471.14785485701157,163.30931912209178,193.41757895415,196.81356545079544,100.4766009998589,48.19147064554668,52.05825771838479,87.5739249070572,51.51773309178759,7.861841346707236,77.38370930761215,9.438484546276644,9050.0,3200.0,900.0,-774.0,-972.0,-400.0,38.0,-512.0,-81.0,-121.3125,-145.5625,-38.75,108.4375,-58.75,-100.0,94706.75,9098.8,3220.4,1117.4,-572.0,774.0,223.0,326.0,278.0,73.0,36.375,112.3125,273.625,228.375,-50.1875,98.125,94732.75,8639.4,2850.8,870.95,-1474.0,-972.0,-400.0,-601.0,-512.0,-433.0,-121.3125,-145.5625,-39.8125,89.3125,-82.3125,-122.8125,94706.75,Kitchen,GETPLATE
9321.5171875,2942.5203125,1293.2984375,-620.15625,394.84375,203.125,65.03125,-51.90625,-110.65625,5.44140625,14.22265625,10.185546875,133.306640625,-44.82421875,-56.541015625,94720.1484375,9305.825,2932.25,1271.85,-700.0,477.0,392.5,48.5,-31.0,-125.5,11.96875,16.1875,19.8125,133.875,-47.71875,-46.625,94719.25,141.37837963181835,107.97492231201785,100.97894022244232,268.8840869552193,381.1441272879972,473.8166754510481,156.27653000577266,184.93335493125363,171.87835333972163,67.8719236394784,100.93373037690314,70.27811880633551,10.412853111570099,10.159494674010613,38.465034425181436,3.3582225611417256,9200.0,2850.0,1200.0,-908.0,-146.0,-589.0,-145.0,-403.0,-456.0,-11.5,-253.25,-127.5625,139.8125,-58.6875,-117.1875,94726.0,9583.85,3098.4,1493.65,110.0,1131.0,781.0,438.0,287.0,247.0,86.6875,212.8125,158.625,157.0625,-19.625,-8.9375,94726.0,9137.9,2767.65,1155.95,-908.0,-146.0,-589.0,-145.0,-403.0,-456.0,-158.4375,-253.25,-127.5625,113.75,-58.6875,-117.1875,94715.75,Kitchen,GETPLATE
9402.790625000001,2958.3999999999996,1392.2129343538695,-703.9375,306.375,135.15625,48.96875,-109.59375,-103.3125,-16.72265625,3.08203125,10.73046875,139.537109375,-52.123046875,-57.623046875,94719.4453125,9345.224999999999,2984.9750000000004,1311.4068181818182,-787.0,157.0,222.0,27.5,-110.0,-77.5,-4.53125,25.75,18.8125,139.59375,-55.90625,-55.21875,94718.5,219.65965992780002,105.82154866231318,196.9901278340468,307.4501729890028,365.90812790168536,407.4880650834867,167.43539618360657,172.0035369806998,162.397647666898,55.61851162207996,92.77814604986783,71.42618891610861,16.325351501790276,14.688271980184084,35.91492623556112,4.918584889838579,9700.0,3000.0,1200.0,-1078.0,-146.0,-589.0,-140.0,-403.0,-456.0,-4.125,-253.25,-127.5625,100.1875,-69.375,-18.125,94726.0,9709.45,3098.4,1669.5649887302782,110.0,1131.0,760.0,438.0,287.0,228.0,67.1875,125.125,158.625,162.9375,-19.625,-12.125,94726.0,9137.9,2761.75,1155.95,-1078.0,-146.0,-589.0,-202.0,-403.0,-456.0,-158.4375,-253.25,-127.5625,100.1875,-73.125,-117.1875,94713.0,kitchen_sink,GETPLATE
9443.959374999999,2890.3984375,1422.3328054564236,-891.03125,99.6875,-33.375,-21.15625,-69.6875,-47.5625,28.716796875,25.12109375,-7.556640625,146.3828125,-63.685546875,-21.765625,94720.640625,9506.625,2881.925,1483.1393125469572,-899.5,86.0,-140.0,1.5,-84.5,-45.5,4.0625,31.15625,-8.5625,150.8125,-63.9375,-34.34375,94723.0,246.998189374812,89.11779128370655,221.83603414981536,148.8945252086079,270.76027219664263,346.91402207128704,128.4433123047146,134.69043060579395,110.22409358416886,54.5896485971972,53.31034304692899,49.95444587971066,35.84999602819747,7.372991873526424,100.17751004165137,5.2739230287238,9700.0,2800.0,1650.0,-1045.0,-444.0,-446.0,-140.0,-17.0,-60.0,-4.125,-119.75,-92.625,91.0625,-69.375,-12.8125,94713.0,9709.45,3053.35,1669.5649887302782,-617.0,548.0,760.0,282.0,225.0,228.0,132.6875,125.125,68.8125,207.875,-52.125,165.1875,94730.25,8908.25,2761.75,974.85,-1188.0,-444.0,-446.0,-265.0,-314.0,-299.0,-36.1875,-119.75,-98.125,91.0625,-77.875,-172.5,94713.0,dish_cabinet,GETPLATE
8980.2234375,3025.1859375,1058.3823711025543,-906.3125,-183.0,-87.65625,-57.0625,-20.0,-26.40625,35.951171875,-4.1640625,1.7109375,179.927734375,-61.447265625,37.71875,94728.78125,8884.425,3065.125,964.225,-876.5,-335.5,-189.5,-32.5,-26.0,-29.5,25.96875,9.3125,-22.875,202.375,-61.375,77.84375,94730.25,363.2413391690857,143.0588646239017,266.33038777294024,159.25703255854933,439.3959196368901,279.8932526212506,157.7509138054408,138.3919166015312,88.76640579851758,57.5530298380727,68.57676625843267,100.16062672863717,44.83632619334324,8.891824542426395,105.03853339600602,5.143799116882259,8600.0,3150.0,800.0,-784.0,-465.0,-446.0,-506.0,-17.0,-5.0,5.0,-127.75,-92.625,91.0625,-61.375,-172.5,94723.0,9638.6,3181.15,1628.114988730278,-644.0,512.0,496.0,219.0,238.0,250.0,132.6875,149.0625,291.75,219.0,-43.75,165.1875,94736.25,8592.25,2784.8,799.25,-1196.0,-980.0,-446.0,-506.0,-371.0,-258.0,-93.6875,-127.75,-98.125,91.0625,-77.875,-172.5,94723.0,counter,GETPLATE
8731.282812500001,3112.4265625,889.9437500000001,-811.1875,8.90625,89.75,-11.0,-73.59375,-35.6875,-21.671875,16.837890625,34.111328125,153.794921875,-55.9296875,-2.15625,94729.6015625,8726.875,3139.1499999999996,875.95,-779.0,85.0,96.0,5.0,-32.5,-19.0,-11.53125,36.96875,-13.375,153.09375,-55.5625,-50.53125,94731.75,96.0939682989915,70.14464546779328,70.35834516154404,210.23281065861093,558.2408636916159,210.5276014391983,197.9481848135207,197.95891710883657,124.42498387744813,49.00968366294497,70.88513834044555,95.62244189912619,58.668140109475004,7.223162751948002,82.02124497358065,5.922162916441168,8600.0,3150.0,850.0,-1215.0,-465.0,-269.0,-506.0,-571.0,3.0,-93.6875,-127.75,-32.6875,73.0625,-61.375,-90.0,94719.25,8906.85,3181.15,1029.5,-245.0,812.0,496.0,350.0,238.0,250.0,75.875,149.0625,291.75,219.0,-43.75,127.0625,94736.25,8592.25,2941.15,799.25,-1215.0,-980.0,-269.0,-506.0,-571.0,-365.0,-93.6875,-127.75,-32.6875,73.0625,-74.5625,-90.0,94719.25,counter,GETPLATE
9349.140322580646,2949.891935483871,1285.3887096774195,-682.8387096774194,380.16129032258067,238.19354838709677,6.483870967741935,-119.61290322580645,-92.3225806451613,9.296370967741936,15.491935483870968,10.471774193548388,120.75403225806451,-47.33064516129032,-55.53629032258065,94719.75,9356.4,2940.2,1269.75,-775.0,198.0,326.0,12.0,-183.0,-66.0,5.6875,7.125,15.75,122.375,-49.6875,-56.25,94720.75,142.4973247815287,44.7928734971204,73.50883474077273,338.8298586581171,438.86870449480244,352.0360227168842,175.59933009890102,262.253780070546,207.40385517098022,76.10259824966204,127.4228603880103,67.39482129336035,9.559080754214362,15.56984593650686,22.486904604596795,8.832232635825063,9450.0,2950.0,1200.0,-1117.0,68.0,-866.0,12.0,-759.0,-97.0,-166.9375,-472.375,-163.9375,130.9375,-71.0625,-92.375,94731.0,9611.9,3029.05,1444.6,264.0,1342.0,729.0,490.0,507.0,187.0,133.125,358.375,174.0,143.0625,-12.5625,-24.9375,94731.0,9150.3,2871.45,1198.55,-1117.0,-283.0,-866.0,-395.0,-759.0,-855.0,-166.9375,-472.375,-163.9375,104.9375,-71.0625,-92.375,94707.75,kitchen_sink,GETPLATE
9284.946875,2898.5640624999996,1314.6132102272727,-767.53125,341.4375,-35.46875,-17.1875,-135.25,-92.375,17.638671875,16.017578125,-9.36328125,123.953125,-53.310546875,-68.78515625,94718.578125,9282.975,2936.45,1272.8204545454546,-908.5,257.5,21.0,-49.0,-152.0,-57.0,7.09375,5.28125,0.375,122.0625,-58.6875,-83.8125,94713.5,102.1963211394398,106.75311375255964,100.7913332371273,369.2336426477187,371.84023082241185,311.1082152122966,193.34198974873513,266.80438648036,187.99583900680082,77.95464448231849,128.1593445652281,73.3935934935892,17.498696668056315,17.5105345911279,67.84145070563989,7.525611511965805,9150.0,2950.0,1200.0,-1181.0,287.0,3.0,-49.0,-759.0,-855.0,-166.9375,-472.375,-163.9375,103.0625,-71.1875,-84.3125,94712.0,9450.55,3029.05,1466.0909090909092,264.0,1342.0,729.0,490.0,507.0,187.0,152.0,358.375,174.0,181.6875,-12.5625,177.0,94731.0,9109.55,2707.2,1198.55,-1181.0,-283.0,-866.0,-395.0,-759.0,-855.0,-166.9375,-472.375,-163.9375,103.0625,-71.1875,-167.8125,94712.0,kitchen_sink,GETPLATE
9039.1640625,2908.5078125,1174.1646306818182,-891.96875,-87.84375,-170.4375,-20.40625,-101.875,-7.40625,34.65234375,-3.5078125,-15.111328125,166.791015625,-63.35546875,26.326171875,94721.5,9079.3,2894.175,1208.5159090909092,-901.5,-11.5,-191.5,-21.0,-127.0,5.5,11.625,-3.09375,-20.0,186.6875,-64.03125,98.0,94724.5,329.7905618953062,138.20723809845282,244.6232759906631,132.00256213911274,374.02873008289,186.7882944284354,112.1527930634609,174.95469459631633,86.71936918552558,51.495478038780654,44.73963023549559,41.36488380853619,46.66349220084991,5.406985603973121,118.44850173854712,6.35444979979105,9400.0,2900.0,1450.0,-1181.0,-461.0,-66.0,-262.0,-164.0,-97.0,11.625,-78.8125,-102.3125,103.0625,-71.1875,-167.8125,94724.5,9450.55,3158.3,1466.0909090909092,-671.0,435.0,229.0,185.0,212.0,186.0,152.0,136.375,69.3125,215.375,-50.8125,177.0,94730.0,8606.75,2707.2,811.85,-1181.0,-844.0,-434.0,-262.0,-434.0,-195.0,-11.625,-78.8125,-102.3125,103.0625,-71.1875,-167.8125,94712.5,counter,GETPLATE
8723.053125,3051.8765625,918.0514204545455,-861.28125,-57.6875,-109.8125,-8.78125,-84.9375,-33.625,-29.955078125,2.478515625,21.498046875,169.783203125,-61.8046875,39.224609375,94723.421875,8698.025000000001,3071.6000000000004,881.4,-830.0,-92.0,-153.0,11.0,-81.0,0.5,-6.4375,1.375,-14.96875,203.1875,-63.53125,98.0,94724.5,111.86403753282441,103.43413361883901,96.06105455176018,277.4785355691732,464.60037892448406,227.45767950927032,260.33300441066604,208.71263428378603,132.35015873103075,64.53492356445079,58.2657950717788,82.66518391772293,49.83506057176293,7.280295953694952,103.55800085542948,2.9385078916062586,8650.0,3150.0,900.0,-1905.0,-461.0,-66.0,-964.0,-702.0,-97.0,-170.9375,-98.0625,-33.0625,90.8125,-52.0,-96.3125,94724.5,9049.05,3165.85,1190.1909090909091,-365.0,730.0,394.0,459.0,359.0,186.0,87.75,186.5625,268.125,218.5625,-51.5625,177.3125,94727.5,8606.75,2821.65,811.85,-1905.0,-844.0,-510.0,-964.0,-702.0,-368.0,-170.9375,-98.0625,-33.0625,90.8125,-81.25,-96.3125,94716.25,counter,GETPLATE
9265.34375,2929.172159090909,1143.9691761363638,-597.375,425.09375,346.53125,33.09375,-56.8125,-91.0625,12.51953125,23.548828125,2.146484375,133.041015625,-40.94140625,-47.80078125,94714.28125,9265.35,2958.2250000000004,1128.25,-614.0,499.5,418.0,45.0,-64.5,-22.5,11.65625,13.96875,5.875,131.96875,-40.78125,-45.78125,94713.0,75.14401200576522,99.25474011225232,58.891737964667286,322.47678085956574,408.8689638956432,393.8729928235832,203.59421364725756,212.03384354025093,204.08915469597136,66.27006398381057,101.05291917297984,74.74196305067926,8.485305273733978,12.866070516646273,25.857557222193126,3.952209467806502,9200.0,3050.0,1100.0,-1302.0,-337.0,-606.0,108.0,-675.0,-21.0,-176.0,-309.625,-190.5625,114.9375,-45.75,-93.5625,94710.0,9391.65,3053.9,1268.4,338.0,1210.0,776.0,624.0,360.0,339.0,92.1875,236.0625,171.5625,150.25,-16.9375,-8.6875,94723.0,9135.4,2740.190909090909,1012.65,-1302.0,-337.0,-606.0,-375.0,-675.0,-582.0,-176.0,-309.625,-190.5625,114.9375,-73.4375,-93.5625,94710.0,kitchen_sink,GETPLATE
9314.628125,2944.2578125,1261.0251420454545,-744.6875,370.0625,5.78125,28.125,-109.0,-84.1875,3.712890625,28.6875,-6.37890625,128.427734375,-55.076171875,-81.673828125,94715.25,9282.3,2960.075,1259.147727272727,-851.0,276.5,-16.0,25.5,-132.0,-51.5,-0.8125,36.84375,8.40625,130.75,-57.8125,-85.25,94713.75,114.08118709052714,77.01073041002981,139.41389115089504,363.98133925049046,376.5552641186734,286.6026511341037,221.36420872224534,215.3538723185182,208.67654202988027,71.14898905814275,97.36414231983672,80.9889368837216,12.872612812820101,17.51771665394475,26.106103939441546,5.527789034768171,9300.0,2850.0,1100.0,-966.0,366.0,-606.0,-375.0,-132.0,-21.0,-176.0,-309.625,4.6875,107.9375,-45.75,-51.0625,94708.5,9523.8,3053.9,1461.7227272727273,338.0,1210.0,775.0,624.0,360.0,339.0,157.1875,236.0625,171.5625,150.25,-16.9375,-37.75,94723.0,9142.9,2843.2,1103.2,-1302.0,-337.0,-606.0,-375.0,-675.0,-582.0,-176.0,-309.625,-190.5625,105.3125,-77.1875,-150.75,94708.5,kitchen_sink,GETPLATE
9201.932812500001,2968.953125,1238.204403409091,-912.25,-91.40625,-82.53125,-42.96875,-79.25,-20.90625,34.021484375,-8.205078125,-12.43359375,169.845703125,-63.779296875,4.609375,94717.875,9289.0,2943.5249999999996,1301.0613636363637,-913.5,93.5,-142.0,-27.5,-110.0,-33.5,7.84375,17.8125,-26.90625,155.65625,-63.53125,-1.46875,94719.375,267.99379344323023,110.57115716302769,189.76556731355595,151.03193424335902,409.45769479965224,257.97949210503964,159.4784815851646,171.44828995657045,105.55272627551383,55.2493970039324,71.92634252193288,52.2636648126805,49.7668631869186,8.902756238541699,107.6871940113227,6.521057701660605,9300.0,2850.0,1450.0,-1199.0,366.0,-401.0,-164.0,-132.0,-220.0,-28.5,-261.0,-109.375,107.9375,-55.8125,-150.75,94708.5,9523.8,3168.65,1461.7227272727273,-564.0,366.0,691.0,247.0,336.0,199.0,157.1875,86.5,120.0,229.625,-40.4375,179.625,94726.5,8683.4,2843.2,891.55,-1199.0,-962.0,-401.0,-619.0,-366.0,-220.0,-28.5,-261.0,-109.375,105.3125,-77.1875,-150.75,94708.5,dish_cabinet,GETPLATE
8915.1,3107.4352272727274,1030.178125,-868.21875,-14.1875,-62.65625,-16.78125,-20.4375,-51.8125,-2.11328125,5.689453125,16.646484375,174.529296875,-59.767578125,16.859375,94719.78125,8886.05,3121.175,998.425,-891.5,43.5,-135.0,-34.5,-15.5,-54.0,3.125,20.59375,-26.90625,189.09375,-58.65625,46.0625,94718.0,197.5926295641225,74.80953531634097,125.82274458314556,225.5298756226924,507.4056999628982,286.756343617432,222.35045490933248,228.99499043682437,132.46970134409435,65.77330293061326,89.05803184091126,100.91750289952459,51.30942410620718,8.339873289543137,99.51519452592281,5.924167969346604,8700.0,3100.0,900.0,-1479.0,-962.0,43.0,-164.0,-508.0,-54.0,-107.6875,-261.0,-79.625,91.9375,-74.1875,-108.3125,94712.25,9361.05,3202.9,1323.1,-406.0,760.0,691.0,395.0,451.0,199.0,153.6875,152.1875,313.875,229.625,-40.4375,179.625,94727.75,8683.4,2919.0,870.15,-1479.0,-962.0,-476.0,-619.0,-508.0,-364.0,-107.6875,-261.0,-79.625,91.9375,-74.1875,-108.3125,94712.25,Kitchen,GETPLATE
8964.079687500001,3012.1518465909094,1068.58125,-865.25,261.53125,38.0625,27.9375,-68.59375,-32.9375,-21.53125,29.02734375,22.4140625,125.765625,-65.36328125,-70.869140625,94723.203125,9014.675,3049.620454545455,1068.8000000000002,-907.0,204.0,64.5,6.0,-77.5,-3.5,-7.21875,16.8125,-5.0625,123.4375,-67.25,-74.8125,94725.0,157.0921903458003,163.86456003277993,109.48300041117004,212.28693303047146,242.36775368062794,200.51529384193148,180.07291309982762,198.2829290677274,112.55677778706377,40.50970612486075,55.264058516222605,95.11031602944958,27.747516054187976,9.243805651264353,33.41067985043549,5.057905621321295,9100.0,3200.0,1200.0,-1479.0,131.0,43.0,43.0,-97.0,-54.0,-107.6875,47.0625,-51.5625,127.875,-77.75,-108.3125,94714.5,9140.35,3202.9,1217.05,-406.0,760.0,529.0,395.0,451.0,164.0,25.9375,152.1875,313.875,214.0625,-49.9375,44.0,94728.0,8689.65,2725.7,870.15,-1479.0,-212.0,-476.0,-428.0,-508.0,-364.0,-107.6875,-51.75,-51.5625,91.9375,-77.75,-108.3125,94714.5,Kitchen,GETPLATE
9465.959374999999,2982.1473011363637,1287.743465909091,-724.40625,345.3125,368.0,-37.6875,-67.6875,-90.15625,7.931640625,17.677734375,2.533203125,133.515625,-46.759765625,-41.541015625,94717.078125,9459.225,3000.259090909091,1280.6,-757.5,291.0,417.5,-31.5,-105.0,-57.0,2.0,4.875,8.25,134.90625,-47.46875,-43.125,94717.5,84.28069598505826,102.57592821352458,50.28917906973892,300.01901653438244,405.8756712145617,289.7896901480952,169.20219580287997,234.99861873307174,186.31695321803545,66.2841595579987,88.76969640219829,63.6139340628242,9.161823622880664,16.57338055095715,17.630108283514815,5.340592233378786,9550.0,3100.0,1250.0,-1340.0,-317.0,576.0,-165.0,138.0,-1.0,-9.625,-255.125,34.6875,133.75,-48.3125,-68.3125,94708.75,9595.85,3109.068181818182,1408.6772727272728,53.0,1225.0,772.0,338.0,447.0,227.0,122.875,203.125,150.4375,149.125,-15.125,-11.5,94725.25,9345.8,2780.25,1196.1,-1340.0,-317.0,-399.0,-635.0,-674.0,-650.0,-137.4375,-255.125,-131.3125,119.0,-79.5,-68.3125,94708.75,kitchen_sink,GETPLATE
9444.12258064516,2954.2400293255137,1381.3563049853374,-771.1612903225806,318.741935483871,125.83870967741936,-8.806451612903226,-112.70967741935483,-71.2258064516129,-9.318548387096774,29.3125,-1.9455645161290323,125.02620967741936,-55.82459677419355,-69.68951612903226,94716.92741935483,9462.25,2992.35,1408.6772727272728,-825.0,246.0,60.0,2.0,-130.0,-63.0,-7.75,20.875,7.5,126.6875,-61.375,-68.3125,94717.5,66.87126044212347,130.06299806686903,116.88122231150848,322.47502195510623,371.5276542189859,276.84304780557443,172.63514886504402,232.2691245873182,163.65017765086995,58.89677223673564,89.48236849141473,73.91037073067419,15.111407237455964,20.514371355799714,24.33201061547109,2.3551305239723415,9500.0,2800.0,1250.0,-906.0,-317.0,-399.0,-165.0,-674.0,-650.0,-137.4375,6.75,-131.3125,97.6875,-56.875,-128.125,94716.25,9566.95,3109.068181818182,1553.6772727272728,53.0,1225.0,772.0,338.0,447.0,227.0,137.9375,203.125,150.4375,149.125,-15.125,-26.75,94719.75,9345.8,2773.772727272727,1234.2,-1340.0,-317.0,-399.0,-635.0,-674.0,-650.0,-137.4375,-255.125,-131.3125,97.6875,-79.5,-128.125,94712.75,kitchen_sink,GETPLATE
9201.05322580645,2901.4114369501463,1317.782404692082,-908.0645161290323,-49.645161290322584,-111.06451612903226,-20.096774193548388,-61.193548387096776,-33.45161290322581,29.076612903225808,-2.4173387096774195,-18.191532258064516,159.73185483870967,-65.75806451612904,7.026209677419355,94716.31451612903,9311.5,2892.922727272727,1416.55,-906.0,99.0,-111.0,0.0,-102.0,-53.0,9.3125,9.0,-29.5625,148.0,-65.25,-68.5625,94716.25,328.4960669311696,100.9399089022209,200.97584142312405,133.2448711918201,361.2863636495845,153.17243779128387,95.41011645827001,151.6991363093055,67.15843888878369,51.68498006170163,46.92203026002944,48.25704270569141,48.378916706073795,7.1911176029204436,109.71725471803832,4.226882096541671,9500.0,2800.0,1450.0,-822.0,-469.0,-299.0,41.0,-321.0,-97.0,-30.5625,-115.3125,-105.875,97.6875,-56.875,118.3125,94710.75,9566.95,3084.272727272727,1553.6772727272728,-610.0,406.0,194.0,178.0,248.0,166.0,138.4375,61.5625,60.3125,219.3125,-53.0625,163.875,94723.75,8649.35,2773.772727272727,940.85,-1164.0,-687.0,-299.0,-225.0,-321.0,-126.0,-30.5625,-115.3125,-105.875,97.6875,-79.0,-165.4375,94710.75,dish_cabinet,GETPLATE
8856.34375,3038.4207386363637,1039.728125,-896.78125,-74.46875,-50.96875,-42.28125,-39.59375,-53.125,-2.080078125,3.431640625,19.037109375,174.62109375,-61.474609375,27.01171875,94719.8828125,8828.875,3066.6863636363637,942.1,-884.5,-138.0,-78.5,-37.5,-4.0,-67.0,6.65625,9.53125,-16.4375,190.65625,-60.0,60.46875,94720.5,191.68526191936817,96.0311697094671,159.6433297443236,244.24019567934323,502.1071717224932,224.64502239913904,222.8138575604483,243.12559602713242,98.49340898203913,75.19950822238707,65.75388526362411,102.55235663629094,44.27963383037644,8.25746331795235,97.89602217988305,5.225937319461025,8650.0,3100.0,950.0,-822.0,-469.0,115.0,41.0,19.0,-97.0,-125.6875,-144.6875,-87.0625,97.6875,-60.0,118.3125,94710.75,9311.5,3159.05,1416.55,-375.0,825.0,534.0,466.0,324.0,178.0,138.4375,130.3125,340.5,220.5,-43.625,163.875,94725.5,8625.25,2802.6227272727274,893.95,-1745.0,-947.0,-299.0,-865.0,-724.0,-289.0,-125.6875,-144.6875,-87.0625,97.6875,-77.5,-165.4375,94710.75,counter,GETPLATE
9009.006249999999,3031.7390625,1003.1203125,-851.59375,148.8125,240.46875,-19.90625,-97.4375,-27.4375,-26.001953125,18.939453125,27.328125,129.625,-59.216796875,-40.232421875,94721.3203125,8978.525000000001,3047.1,944.7750000000001,-874.5,121.5,269.0,-12.0,-79.5,-36.5,-2.75,31.09375,-5.4375,117.5625,-56.46875,-37.875,94723.5,261.8974133529532,93.67173785772472,100.4816520399291,235.86489563293534,389.97406344690455,257.25536257302906,220.84476512305667,223.5536938461498,116.37867488394055,54.63125675666127,73.11665151608867,98.51955041775277,35.156056899111256,8.662363326538415,43.765081600906704,5.084461772114801,9350.0,3100.0,900.0,-742.0,-947.0,115.0,-865.0,-23.0,33.0,-125.6875,-182.25,-53.0,115.6875,-55.5,-91.0625,94711.5,9374.4,3159.05,1189.0,-375.0,825.0,675.0,466.0,324.0,226.0,79.9375,130.3125,340.5,220.5,-43.625,66.1875,94725.5,8625.25,2842.7,893.95,-1745.0,-947.0,-250.0,-865.0,-724.0,-289.0,-125.6875,-182.25,-53.0,97.6875,-77.5,-91.0625,94711.5,counter,GETPLATE
9362.93787878788,4471.1606060606055,547.8787503130479,-505.1818181818182,-664.7575757575758,-406.57575757575756,10.515151515151516,-38.21212121212121,-48.36363636363637,-2.952651515151515,-53.49242424242424,32.48106060606061,248.2443181818182,-32.297348484848484,105.95075757575758,94721.70454545454,9440.2,4454.95,561.95,-475.0,-694.0,-478.0,33.0,-18.0,-19.0,12.1875,-22.1875,15.875,276.5,-32.8125,114.75,94720.25,182.81537135792172,131.7264582605606,82.12490943348543,292.02048885153744,250.5538901991733,404.38193814009475,240.68653384798571,128.1319528786042,253.3379435385936,80.05581553608833,120.90973796901666,79.82713024930786,62.6965977548097,17.68916339284664,41.76733114025864,5.651829953048996,9550.0,4350.0,450.0,-1376.0,-1014.0,-309.0,-804.0,-95.0,-971.0,-277.875,-401.1875,-187.5625,0.0,-42.25,114.25,94719.25,9569.65,4734.9,685.6095041322315,-118.0,223.0,454.0,381.0,195.0,476.0,90.4375,139.9375,246.0,285.3125,0.0,134.4375,94732.25,9038.85,4307.5,429.2,-1376.0,-1014.0,-1520.0,-804.0,-351.0,-971.0,-277.875,-401.1875,-187.5625,0.0,-74.375,-23.6875,94712.25,fridge,OPENFRIDGE
9317.13484848485,4619.099999999999,586.2496994740798,-532.0909090909091,-384.8787878787879,216.06060606060606,-0.5151515151515151,-99.06060606060606,-112.84848484848484,-10.740530303030303,-59.94886363636363,17.134469696969695,192.03030303030303,-34.93939393939394,42.85606060606061,94721.99242424243,9300.1,4629.0,581.1595041322314,-501.0,-393.0,395.0,27.0,-95.0,-65.0,3.75,-38.75,13.3125,166.8125,-38.9375,8.5625,94722.25,202.0219497994156,89.67338652019338,51.20610584117304,310.0757330512543,362.70853980639174,654.4436062122703,245.77150480834342,138.07492064861458,245.91196610933264,79.80441197213224,130.36938249536587,92.48109646528272,64.84931474844436,18.44121708325774,56.3555552248342,5.763735241958459,9100.0,4700.0,600.0,-1376.0,3.0,-1520.0,-27.0,-200.0,-37.0,-277.875,-401.1875,-187.5625,0.0,-42.25,8.3125,94725.75,9741.1,4734.9,685.6095041322315,-18.0,337.0,1020.0,381.0,195.0,476.0,90.4375,139.9375,246.0,279.0625,0.0,116.8125,94729.75,9038.85,4454.95,503.65495867768595,-1376.0,-1014.0,-1520.0,-804.0,-360.0,-971.0,-277.875,-401.1875,-187.5625,0.0,-74.375,-26.3125,94712.25,Kitchen,OPENFRIDGE
9531.571212121213,4625.215151515151,654.0392687202605,-579.8787878787879,71.57575757575758,482.3030303030303,-30.303030303030305,-29.12121212121212,-100.9090909090909,26.66287878787879,33.41477272727273,-5.922348484848484,174.04545454545453,-41.28787878787879,-36.18939393939394,94724.09090909091,9573.3,4622.25,700.5,-522.0,77.0,561.0,-8.0,-66.0,-76.0,13.625,42.1875,12.9375,172.0625,-34.375,-19.75,94725.75,215.2626564333323,70.87371855637014,102.9826079831203,346.4590305483245,286.67152700249005,453.3916963322446,170.209702435056,202.45026512327627,140.1827743600216,62.53672737168014,97.45545459048928,59.03609493729303,19.854286528025423,24.69197417622219,59.572261719848164,6.568098261500605,9800.0,4700.0,750.0,-1465.0,3.0,-839.0,-27.0,-200.0,18.0,-63.75,59.5,-119.3125,179.6875,-11.6875,-34.0,94725.75,9798.85,4720.1,781.5,-18.0,513.0,1020.0,257.0,451.0,149.0,180.875,212.3125,68.5,216.5625,-7.4375,8.9375,94731.0,9100.4,4482.6,503.65495867768595,-1465.0,-408.0,-839.0,-494.0,-360.0,-381.0,-63.75,-162.125,-119.3125,137.8125,-88.6875,-179.0,94712.25,fridge,OPENFRIDGE
9293.960294117645,4547.288235294117,725.1308823529412,-783.5588235294117,269.5882352941176,-128.52941176470588,14.470588235294118,34.705882352941174,-119.8529411764706,-12.213235294117647,41.80882352941177,-9.965073529411764,179.0496323529412,-59.94117647058823,-104.6158088235294,94723.00735294117,9274.225,4567.875,729.7249999999999,-792.0,330.5,-277.5,67.0,46.0,-121.0,-48.65625,23.09375,-15.1875,177.5625,-61.21875,-127.59375,94723.25,380.91881835726986,116.32059411373916,35.54029726241596,232.44278425042393,200.3858577310525,539.2213935202743,162.76367610818318,215.18244963522477,178.7141161019958,80.66053527097706,71.27225685928853,47.647632892511886,20.584307765540657,16.59558189238034,60.46438841319774,5.521818051958112,9800.0,4550.0,750.0,-1465.0,-330.0,-1054.0,-494.0,-564.0,18.0,-63.75,59.5,-119.3125,179.6875,-88.6875,-34.0,94714.5,9798.85,4691.0,781.5,-331.0,515.0,780.0,257.0,451.0,398.0,180.875,212.3125,68.5,216.5625,-29.375,-2.1875,94731.0,8811.65,4245.05,650.45,-1465.0,-330.0,-1054.0,-494.0,-564.0,-468.0,-114.75,-38.6875,-119.3125,143.625,-88.6875,-179.0,94714.5,Kitchen,OPENFRIDGE
9330.2109375,4527.154687499999,569.0484375000001,-554.25,-530.375,-333.78125,55.53125,-30.09375,-73.0625,-19.521484375,-57.51953125,22.484375,257.857421875,-40.212890625,92.345703125,94725.75,9308.3,4530.45,592.8,-474.0,-692.5,-444.5,74.5,-8.0,-56.0,4.125,-16.1875,16.78125,289.84375,-37.28125,117.03125,94727.5,187.14988160018623,145.66014208920564,77.40113307120022,289.56886751213096,404.3173258716475,384.35440083801353,243.7451054099145,161.91382801235014,236.9291356557497,77.94364047869671,112.85433383212423,83.391384350369,56.41344362442591,17.760325110424464,58.82681573988606,6.377569058565669,9550.0,4650.0,650.0,-474.0,-956.0,-537.0,-738.0,-316.0,-56.0,-266.5625,-413.0,7.8125,149.625,-84.1875,114.9375,94731.25,9559.3,4741.9,674.05,-79.0,448.0,435.0,621.0,303.0,480.0,62.625,78.5625,223.4375,302.75,-17.875,128.5,94731.25,9084.9,4288.75,439.6,-1290.0,-956.0,-1119.0,-738.0,-316.0,-755.0,-266.5625,-413.0,-141.875,149.625,-84.1875,-62.9375,94713.5,Kitchen,OPENFRIDGE
9452.618181818183,4680.866666666667,715.8920110192838,-668.3636363636364,-302.27272727272725,223.8181818181818,15.454545454545455,-105.84848484848484,-112.27272727272727,-25.195075757575758,-40.42992424242424,18.685606060606062,198.29924242424244,-46.797348484848484,32.85606060606061,94720.06818181818,9349.6,4706.3,717.6272727272727,-621.0,-264.0,346.0,57.0,-109.0,-97.0,-7.1875,-18.8125,9.3125,176.6875,-42.0625,13.9375,94721.25,331.6904111936927,51.02800956745881,92.35661733903963,252.92301424813766,364.01942536828244,541.6918782011513,248.10822876683915,162.77306311474752,217.97394808888183,74.63308974808456,132.22557053503076,90.69077958196033,50.382137748369146,15.525291474460335,59.18431651625465,7.072247898717147,9100.0,4700.0,650.0,-855.0,-956.0,-394.0,-738.0,-378.0,-56.0,-266.5625,-413.0,-141.875,176.625,-62.875,-62.9375,94712.25,9971.95,4741.9,878.8772727272728,-86.0,448.0,847.0,621.0,303.0,480.0,58.75,215.25,223.4375,294.1875,-26.6875,119.9375,94731.25,9084.9,4542.75,597.8,-1290.0,-956.0,-1119.0,-738.0,-378.0,-755.0,-266.5625,-413.0,-141.875,149.625,-84.1875,-62.9375,94712.25,Kitchen,OPENFRIDGE
9656.915151515152,4727.565289256198,735.0286501377411,-670.2727272727273,-200.54545454545453,548.5454545454545,-91.36363636363636,-18.87878787878788,-12.090909090909092,-12.206439393939394,-34.24242424242424,-16.958333333333332,173.23674242424244,-41.11742424242424,6.8522727272727275,94716.90151515152,9682.55,4720.0,726.6772727272727,-701.0,-249.0,674.0,-82.0,-57.0,0.0,-6.375,-36.0,-0.5625,176.625,-40.5625,13.9375,94714.75,236.1599969051862,39.681878641689984,84.95010853093373,261.1400812695258,354.3250706368633,262.7393065032679,154.62087063641712,209.78854794407832,149.9440236464019,43.87155681392515,120.71164589419809,78.11580987613306,11.608352469855227,24.10792059356518,35.01093515761605,5.709757066423734,9950.0,4700.0,650.0,-1349.0,-932.0,30.0,57.0,-378.0,-297.0,-79.8125,-252.5625,-3.75,176.625,-62.875,-59.1875,94714.75,9971.95,4784.504545454545,878.8772727272728,-178.0,451.0,847.0,137.0,560.0,219.0,73.4375,215.25,105.6875,192.0,7.875,58.75,94726.5,9200.3,4633.1,599.55,-1349.0,-932.0,30.0,-413.0,-378.0,-297.0,-79.8125,-252.5625,-181.5,151.125,-83.4375,-59.1875,94711.25,fridge,OPENFRIDGE
9379.61515151515,4699.380027548209,748.1657321800756,-412.1515151515151,-441.3333333333333,569.060606060606,-111.81818181818181,82.6969696969697,69.27272727272727,-10.407196969696969,-57.50189393939394,-13.746212121212121,150.1401515151515,-22.198863636363637,31.751893939393938,94720.70454545454,9292.45,4745.9,713.2146506386176,-230.0,-680.0,668.0,-119.0,54.0,79.0,4.5625,-21.125,6.4375,151.125,-10.6875,47.875,94716.25,264.77383405608197,89.33476561388322,105.04169484656015,377.24909884021935,450.4758363848905,224.62050487905418,183.7201429051559,147.10019647515875,107.0120532718373,40.56349647638475,94.30672779517754,75.43078745539582,25.42996966194761,29.47549488088387,39.67051335803411,7.762453337584827,9100.0,4750.0,650.0,-1349.0,-797.0,30.0,-207.0,49.0,-196.0,4.5625,-252.5625,-181.5,118.5,-83.4375,-59.1875,94716.25,9919.1,4787.454545454546,923.8250734239466,151.0,451.0,804.0,285.0,560.0,219.0,73.4375,95.125,82.25,192.0,8.1875,60.375,94733.0,9095.15,4513.25,599.55,-1349.0,-932.0,30.0,-569.0,-115.0,-196.0,-79.8125,-252.5625,-181.5,118.5,-83.4375,-59.1875,94711.25,Kitchen,OPENFRIDGE
9237.290909090909,4606.266666666666,647.2348484848485,-596.4545454545455,-304.3939393939394,-193.45454545454547,56.09090909090909,-20.0,-64.12121212121212,-18.426136363636363,-33.24431818181818,49.42992424242424,187.0909090909091,-44.23106060606061,82.49621212121212,94727.18939393939,9182.6,4598.05,657.85,-603.0,-553.0,-418.0,46.0,-12.0,-60.0,-4.4375,-20.3125,42.9375,204.4375,-43.875,123.6875,94729.5,197.98338134745742,107.63539051662642,65.30979706600712,233.30962406599986,584.3460521917823,477.60156582848236,185.4353599701867,286.43214728797466,185.77300624279312,55.541801488028014,84.39191289350705,68.74372975237465,49.14257023899546,16.142095807022308,75.67638836974167,6.663224134847343,9050.0,4600.0,650.0,-613.0,-1144.0,-809.0,36.0,-34.0,-505.0,-180.0625,-314.5,-78.875,102.0625,-82.5,-36.9375,94723.5,9553.85,4811.2,751.1454545454546,-212.0,930.0,727.0,537.0,651.0,336.0,42.0,57.375,188.4375,253.25,-18.0,163.625,94736.75,8996.7,4436.0,528.35,-1150.0,-1144.0,-809.0,-321.0,-881.0,-505.0,-180.0625,-314.5,-78.875,102.0625,-82.5,-36.9375,94714.75,Kitchen,OPENFRIDGE
9282.45606060606,4679.224242424242,657.992774855998,-563.1212121212121,-75.33333333333333,414.09090909090907,48.09090909090909,-100.33333333333333,-98.27272727272727,-18.755681818181817,-26.666666666666668,29.793560606060606,138.07386363636363,-41.61931818181818,22.236742424242426,94719.24242424243,9158.8,4683.1,660.5454545454546,-564.0,-127.0,584.0,52.0,-157.0,-115.0,-14.5625,-33.1875,21.625,126.5625,-42.0,0.25,94720.0,279.39914709895095,103.62208916389113,52.47880060122497,264.7832554156037,463.6461923349168,543.1630949606874,199.72471110824702,304.8647924353789,172.16639348448507,59.82743814006588,94.70293251231607,78.99854207275735,32.666641792094445,18.07911327541492,66.30942160763728,4.409012807805613,9050.0,4800.0,650.0,-1150.0,-1144.0,-809.0,36.0,-293.0,-505.0,-180.0625,-314.5,-88.875,127.1875,-82.5,4.375,94714.75,9854.2,4811.2,751.1454545454546,20.0,930.0,1206.0,537.0,651.0,266.0,65.6875,108.0625,188.4375,204.4375,-13.25,163.625,94729.5,8996.7,4412.65,567.1314049586776,-1150.0,-1144.0,-809.0,-331.0,-881.0,-505.0,-180.0625,-314.5,-88.875,102.0625,-82.5,-36.9375,94714.5,Kitchen,OPENFRIDGE
9603.127272727274,4611.15606060606,703.0208239418984,-589.8484848484849,74.93939393939394,545.1818181818181,21.727272727272727,-100.63636363636364,-70.78787878787878,25.852272727272727,15.37310606060606,-12.265151515151516,124.99431818181819,-41.854166666666664,-24.189393939393938,94718.97727272728,9630.4,4612.7,735.85,-597.0,-44.0,578.0,32.0,-145.0,-103.0,16.0,33.0,-10.875,124.4375,-44.5,-19.5625,94714.75,238.40235130542348,138.68754492877588,84.37370006169871,241.37977354318147,368.00449550531476,344.6122326747716,119.30089918124902,232.44405485269704,156.35231801442808,49.34301975141895,64.11663201684655,46.28943902880359,11.258540200678066,18.492962572652917,28.30613323854191,6.2902962334492205,9900.0,4750.0,750.0,-1065.0,-482.0,-243.0,52.0,-293.0,-103.0,-25.125,-104.375,-94.25,127.1875,-46.1875,4.375,94713.25,9922.7,4794.7,825.75,20.0,813.0,1206.0,257.0,525.0,275.0,147.875,119.3125,74.25,153.3125,-13.25,9.0625,94730.25,9145.85,4378.5,567.1314049586776,-1065.0,-482.0,-243.0,-331.0,-644.0,-414.0,-47.3125,-104.375,-94.25,109.1875,-77.3125,-78.0625,94713.25,fridge,OPENFRIDGE
9299.166666666666,4602.683333333333,744.164412722264,-858.6363636363636,272.2121212121212,166.3030303030303,-3.696969696969697,-20.515151515151516,-105.18181818181819,-8.073863636363637,19.15719696969697,1.3636363636363635,127.49431818181819,-64.65719696969697,-54.11931818181818,94721.20454545454,9265.7,4612.4,754.8,-881.0,304.0,166.0,-15.0,-10.0,-106.0,-25.125,14.125,13.1875,125.25,-69.3125,-50.6875,94723.25,446.1869417398572,111.57346281337091,67.8185404161309,183.31288453451285,249.1318372839667,306.26168190459333,107.89128928245461,231.8602921497288,144.49361027080369,64.45687953940515,39.346049380572225,40.009781075083836,15.661896777000194,13.39008824416602,18.424070609963184,10.171854271379521,8800.0,4600.0,750.0,-1332.0,305.0,-371.0,-37.0,-644.0,-103.0,-88.3125,-42.4375,-94.25,97.125,-80.125,-91.0625,94713.25,9922.7,4770.95,853.15,-523.0,813.0,741.0,206.0,525.0,275.0,147.875,119.3125,74.25,153.3125,-41.5625,-19.5625,94733.5,8767.65,4378.5,592.75,-1332.0,-288.0,-371.0,-366.0,-644.0,-414.0,-88.3125,-42.4375,-94.25,97.125,-80.125,-91.0625,94706.0,Kitchen,OPENFRIDGE
9245.449999999999,4507.307575757575,552.4769471575255,-645.969696969697,-517.1818181818181,-392.09090909090907,38.333333333333336,-9.757575757575758,-91.27272727272727,-18.102272727272727,-40.08143939393939,29.257575757575758,202.0909090909091,-45.816287878787875,94.58712121212122,94721.23484848485,9280.25,4494.45,554.8628099173554,-556.0,-698.0,-405.0,69.0,-20.0,-79.0,-3.9375,-12.4375,18.625,218.875,-46.9375,120.3125,94722.25,187.57986257525096,87.42142643648293,59.37279037016266,333.22050552604094,368.86120819231036,252.0025252398728,240.47032907755306,212.01548149590255,206.1213648447306,69.31528049360884,94.99426957024151,73.96795580341713,43.82552379454782,18.025738023652416,71.68975268126174,1.7138445838452674,9450.0,4450.0,500.0,-1699.0,-1137.0,-974.0,-784.0,-128.0,-183.0,-234.8125,6.625,-152.375,96.25,-86.5,-176.75,94722.5,9467.7,4723.15,641.4628099173553,-66.0,267.0,81.0,423.0,453.0,570.0,48.375,138.75,204.6875,245.75,-20.375,133.4375,94722.5,8986.8,4371.5,463.45,-1699.0,-1137.0,-974.0,-784.0,-530.0,-554.0,-234.8125,-292.5,-152.375,96.25,-86.5,-176.75,94718.25,Kitchen,OPENFRIDGE
9233.85606060606,4596.15606060606,566.5638241923366,-749.7575757575758,-221.24242424242425,125.93939393939394,-18.333333333333332,-26.303030303030305,-133.93939393939394,-32.46969696969697,-47.5625,7.6231060606060606,150.5776515151515,-49.98863636363637,40.16098484848485,94722.22727272728,9186.7,4583.45,571.25,-695.0,-147.0,81.0,-17.0,-11.0,-101.0,-10.4375,-25.4375,8.75,124.5625,-47.75,11.5625,94722.5,213.59166714696823,57.76727252191516,49.34951617319337,288.96269550573373,290.7884787847335,552.9775616714671,263.74889415250004,221.4628192339073,157.00755144935295,61.990513468284426,99.9890765518289,86.26273185700596,45.811732680048245,14.325121128563325,76.07279137429049,1.8795399582199508,9000.0,4550.0,600.0,-1699.0,-1110.0,-974.0,-784.0,-128.0,-199.0,-234.8125,-292.5,-152.375,123.625,-86.5,11.0,94722.25,9653.1,4723.15,641.4628099173553,-66.0,267.0,823.0,484.0,453.0,130.0,38.6875,138.75,204.6875,219.1875,-33.75,133.4375,94723.5,8986.8,4494.45,483.7719008264463,-1699.0,-1110.0,-974.0,-784.0,-530.0,-554.0,-234.8125,-292.5,-152.375,96.25,-86.5,-176.75,94713.0,Kitchen,OPENFRIDGE
9530.1015625,4533.174999999999,558.4631714876033,-739.78125,-117.40625,547.875,-41.375,-83.84375,-86.90625,-0.3828125,4.51953125,-6.57421875,117.80078125,-46.83203125,-0.41796875,94718.8671875,9616.275000000001,4544.425,530.9749999999999,-702.0,-121.0,616.0,-26.0,-48.0,-85.5,-1.28125,11.78125,0.0,121.90625,-43.25,10.34375,94721.0,187.59870197139102,100.36389355257329,60.28043515309632,184.66774599612768,148.0470412108608,196.4024423341999,159.7784252059405,129.53567434270514,100.24015014759756,19.68384022563244,67.8624610393815,54.671391492782185,8.088775288032314,12.252514117214488,15.964232304737898,5.081586134380586,9700.0,4400.0,500.0,-618.0,-528.0,208.0,-356.0,-361.0,-199.0,5.1875,-198.6875,-134.25,123.625,-69.6875,11.0,94722.75,9709.4,4708.8,679.0,-401.0,137.0,823.0,484.0,77.0,142.0,67.3125,172.3125,84.25,127.375,-33.75,12.5625,94723.5,9125.1,4375.9,479.9272727272727,-1237.0,-528.0,208.0,-356.0,-361.0,-268.0,-49.25,-198.6875,-134.25,102.9375,-69.6875,-29.125,94711.0,fridge,OPENFRIDGE
9435.5234375,4548.043750000001,567.9919034090908,-850.4375,104.125,87.09375,-13.0625,-21.46875,-114.9375,18.908203125,40.328125,6.263671875,126.140625,-60.615234375,-49.505859375,94717.0546875,9534.7,4563.75,559.6136363636363,-831.0,57.5,259.0,-12.5,-40.5,-108.0,3.90625,34.15625,3.0625,123.53125,-61.09375,-24.28125,94719.75,272.2498582553541,109.28819458572113,83.33526758317667,161.7072100253837,275.9193138255013,488.1059086143022,123.65194062106279,262.09909285574884,158.29737990210376,61.113693756887535,55.342803117070595,46.81687453820425,16.50595567001939,12.513058797412002,61.87121884702679,4.07773971576364,9700.0,4650.0,500.0,-831.0,-255.0,-691.0,-2.0,-496.0,-209.0,5.1875,-41.6875,-96.6875,102.9375,-80.0625,-145.375,94711.0,9709.4,4676.95,747.1272727272727,-533.0,674.0,767.0,249.0,579.0,142.0,169.625,172.3125,84.25,156.625,-35.5625,12.5625,94721.0,8913.1,4375.9,468.5772727272727,-1237.0,-255.0,-691.0,-337.0,-496.0,-515.0,-58.6875,-41.6875,-96.6875,102.9375,-80.0625,-145.375,94711.0,fridge,OPENFRIDGE
9016.365624999999,4562.8046875,691.7741512490609,-831.875,357.59375,-201.3125,26.71875,36.09375,-118.3125,-14.6640625,8.248046875,-6.181640625,113.90625,-61.818359375,-91.55859375,94719.046875,8942.075,4577.25,756.3772727272727,-809.5,412.5,-336.0,2.0,39.0,-104.0,-48.15625,-5.90625,-8.34375,116.8125,-58.875,-117.59375,94719.75,246.03972352942407,92.31862807809568,163.14336848576946,114.94479740994328,229.57265479722352,379.41393154655367,115.40090970038936,245.08831316486717,147.66340047117185,74.55886183766638,71.05401470103452,31.888763471316768,27.437727330236136,8.877929425878369,50.502422634070555,4.316340622676544,8750.0,4450.0,850.0,-1144.0,-226.0,-691.0,-240.0,49.0,-120.0,-49.6875,-110.6875,-96.6875,83.375,-80.0625,-145.375,94714.25,9515.3,4676.95,883.1495492111195,-678.0,674.0,537.0,249.0,579.0,116.0,169.625,170.75,68.0,156.625,-48.8125,3.125,94726.0,8756.8,4435.3,468.5772727272727,-1144.0,-226.0,-691.0,-240.0,-496.0,-515.0,-83.25,-110.6875,-96.6875,82.8125,-80.0625,-145.375,94711.0,Kitchen,OPENFRIDGE
9341.2578125,4534.611221590909,651.4885588842975,-672.09375,-391.71875,-191.90625,3.84375,-43.53125,26.71875,-14.7109375,-38.685546875,55.53125,210.953125,-46.998046875,90.447265625,94723.28125,9279.825,4542.975,636.5115702479338,-697.0,-599.5,-338.5,19.0,-76.5,50.0,1.59375,-47.5625,43.84375,222.90625,-48.1875,123.59375,94724.5,191.78694921346658,203.87573449190876,187.84882679233775,268.7835631705279,489.9747349888761,390.35363283739895,105.02046171595447,246.06647205451384,142.72650009947404,63.67073810334697,66.36107829741859,52.780340704843454,46.9531257547904,20.58649561012744,65.48207768025026,6.88111897783324,9150.0,4350.0,450.0,-850.0,-845.0,-615.0,-32.0,-157.0,140.0,24.3125,-207.6875,-11.375,218.125,-60.5625,116.0625,94720.0,9606.6,4925.659090909091,910.7045454545454,-222.0,571.0,667.0,260.0,629.0,326.0,62.3125,70.0,172.5,269.0,-16.5,143.75,94731.25,9115.85,4263.1,422.9685950413224,-1240.0,-989.0,-615.0,-244.0,-683.0,-272.0,-184.1875,-207.6875,-11.375,109.8125,-79.9375,-36.5625,94710.25,Kitchen,OPENFRIDGE
9368.446875000001,4759.847017045455,836.1644886363637,-614.5,-58.21875,428.09375,-16.25,-111.8125,-45.1875,-25.619140625,-38.896484375,36.248046875,148.259765625,-41.873046875,22.927734375,94719.5,9251.35,4776.459090909091,853.9795454545454,-656.0,-80.5,521.0,-1.0,-168.0,-27.0,-13.9375,-43.65625,25.5625,124.4375,-41.46875,-1.375,94718.75,254.46708163352008,103.18218107865296,62.83969879928307,329.8758319673162,353.0294453930382,489.3974807385361,115.96328673751768,272.61486924869644,140.31311471594637,66.44979262088498,77.53029716290982,60.5013756266374,42.013597997281394,24.81700913959675,63.25771960847359,7.143686587786178,9150.0,4800.0,850.0,-850.0,-942.0,-551.0,-32.0,-683.0,-30.0,-184.1875,-207.6875,-75.6875,218.125,-60.5625,-3.5,94714.25,9876.4,4925.659090909091,935.559090909091,-59.0,571.0,1029.0,260.0,629.0,228.0,111.1875,172.875,172.5,221.1875,-8.1875,143.75,94731.25,9115.85,4557.35,655.0045454545455,-1240.0,-942.0,-551.0,-244.0,-683.0,-299.0,-184.1875,-207.6875,-75.6875,109.8125,-79.9375,-36.5625,94710.25,Kitchen,OPENFRIDGE
9692.983333333332,4740.868870523416,889.9924993739044,-553.8181818181819,179.45454545454547,546.5454545454545,-23.333333333333332,-110.48484848484848,-66.36363636363636,35.37310606060606,9.475378787878787,-18.46212121212121,123.16098484848484,-36.85795454545455,-32.27272727272727,94717.44696969698,9756.7,4760.5,874.209090909091,-523.0,263.0,487.0,-21.0,-136.0,-64.0,33.4375,6.1875,-7.1875,118.625,-31.4375,-31.8125,94718.75,226.51282030034562,95.60898678325471,83.41289983245737,319.7942165035054,288.02735231539765,321.91692357162304,126.15483211778557,182.76763273555187,134.42326300296253,56.86476231015093,74.3782725438676,43.47847084028886,17.806722132423076,23.36900027826783,26.562825449209473,3.731599426560015,9950.0,4800.0,850.0,-1238.0,-317.0,94.0,-44.0,-542.0,-3.0,-69.0,-113.625,-114.125,110.875,-77.5625,-65.4375,94718.75,9990.7,4921.359090909091,1036.709090909091,-59.0,593.0,1029.0,362.0,329.0,309.0,133.5625,172.875,33.75,173.9375,-8.1875,-0.0625,94723.5,9258.35,4566.5590909090915,744.2512396694216,-1238.0,-317.0,94.0,-289.0,-542.0,-353.0,-69.0,-113.625,-114.125,105.6875,-77.5625,-69.4375,94710.25,fridge,OPENFRIDGE
9425.613636363638,4698.108402203858,832.8721637866266,-837.6363636363636,322.8181818181818,86.87878787878788,-14.757575757575758,-29.575757575757574,-77.60606060606061,14.390151515151516,24.234848484848484,-12.973484848484848,140.46969696969697,-61.941287878787875,-77.7594696969697,94717.49242424243,9454.95,4679.5,831.5727272727272,-900.0,350.0,94.0,-8.0,-29.0,-65.0,18.6875,12.0,-0.875,143.5,-70.3125,-69.4375,94718.25,441.4834874942819,85.17191087602939,127.33107120458155,218.93989160580955,165.852806455275,304.8365092118804,116.5847412569046,154.61606285874504,139.70503288042707,68.03710827997708,54.845710947633144,38.28233745363292,25.141222807976206,17.539116017415143,28.734477472340227,3.9894807230257348,8850.0,4650.0,750.0,-1012.0,350.0,94.0,-86.0,-12.0,-25.0,-84.3125,0.1875,-114.125,110.875,-77.5625,-65.4375,94718.25,9990.7,4857.85,1036.709090909091,-376.0,593.0,708.0,362.0,329.0,309.0,133.5625,169.5,22.1875,175.375,-25.5625,-24.5,94723.5,8825.15,4566.5590909090915,665.6012396694216,-1238.0,-187.0,-437.0,-289.0,-425.0,-354.0,-84.3125,-62.4375,-114.125,105.6875,-77.5625,-129.3125,94711.25,fridge,OPENFRIDGE
9070.087500000001,4637.2828125,851.2475206611571,-920.6875,228.5,23.21875,-15.15625,-96.59375,-59.9375,-33.12109375,6.673828125,4.09765625,130.36328125,-68.341796875,-81.34375,94720.078125,9019.4,4599.450000000001,854.6012396694216,-923.5,259.0,125.5,-1.0,-71.0,-30.0,-29.6875,0.0,7.75,120.8125,-66.4375,-79.71875,94721.75,213.85592602678605,107.15617981469786,141.24164528470635,60.55679152663225,132.77193640515375,225.08503545434527,54.16111530692774,120.48794863441336,110.50410516385587,36.427661613394285,29.314461186778086,10.949652666782882,27.888243804784857,4.083305420737246,25.078505769142293,4.386304519605277,8850.0,4600.0,900.0,-1012.0,350.0,140.0,-147.0,-12.0,27.0,-84.3125,13.25,8.0625,101.6875,-64.9375,-129.3125,94718.25,9467.0,4857.85,1091.7438016528927,-763.0,380.0,355.0,98.0,133.0,73.0,43.0,101.8125,22.1875,175.375,-63.25,-51.6875,94724.0,8825.15,4511.2,665.6012396694216,-1071.0,-187.0,-437.0,-147.0,-425.0,-354.0,-84.3125,-38.5625,-16.8125,100.75,-77.125,-129.3125,94711.25,Kitchen,OPENFRIDGE
9248.096969696968,4538.139393939394,576.0480716253443,-667.1818181818181,-565.6363636363636,-368.6666666666667,-34.666666666666664,-37.45454545454545,30.272727272727273,-15.339015151515152,-39.797348484848484,29.589015151515152,181.2443181818182,-42.81818181818182,123.98295454545455,94726.06060606061,9267.55,4547.65,576.25,-605.0,-676.0,-382.0,3.0,-56.0,61.0,5.375,-25.9375,10.0625,183.875,-45.125,128.9375,94722.0,176.78495894526873,50.0451916983162,65.0627873108182,385.51381740359307,293.40594938815343,242.9971278979788,288.9825542600568,226.72162045517004,204.8414436715738,65.2054502309437,88.65437056066428,79.63567559649822,28.405705799742666,17.09080301690895,27.196057708150587,8.053539182943865,9450.0,4550.0,600.0,-1928.0,-794.0,-402.0,-1038.0,-56.0,266.0,-235.875,-280.75,-160.1875,88.25,-80.1875,129.375,94718.0,9455.7,4607.9,680.190909090909,-138.0,135.0,300.0,734.0,570.0,384.0,32.4375,109.0,232.375,217.9375,-18.9375,153.5625,94738.75,8986.6,4426.15,465.3,-1928.0,-1031.0,-955.0,-1038.0,-704.0,-563.0,-235.875,-280.75,-160.1875,88.25,-80.1875,-3.1875,94718.0,Kitchen,OPENFRIDGE
9264.092424242426,4630.716528925621,693.5674305033808,-785.6060606060606,-234.96969696969697,133.06060606060606,-38.121212121212125,-84.24242424242425,-23.848484848484848,-21.439393939393938,-50.734848484848484,15.132575757575758,127.9034090909091,-52.30492424242424,59.72159090909091,94720.46212121213,9186.2,4607.9,659.790909090909,-732.0,-200.0,300.0,-5.0,-87.0,6.0,1.0625,-32.6875,-0.6875,100.625,-49.4375,3.75,94719.0,248.19781460599006,68.33434648194425,86.44676918676089,331.645041742103,267.5370867805626,528.5367146302339,306.2577302673107,259.52216069911907,202.54353254487683,63.6430964196969,92.34679567511101,94.44621789981862,41.290620065551536,9.852646743167236,73.20014516832158,4.8226845205599425,9000.0,4550.0,650.0,-700.0,36.0,-955.0,-1038.0,-396.0,-563.0,-235.875,-280.75,-160.1875,71.8125,-80.1875,-0.75,94723.5,9857.65,4758.986363636364,848.5045454545455,-138.0,173.0,986.0,734.0,570.0,384.0,37.1875,109.0,232.375,183.875,-38.25,153.5625,94731.5,8986.6,4537.35,576.25,-1928.0,-1031.0,-955.0,-1038.0,-704.0,-563.0,-235.875,-280.75,-160.1875,71.8125,-80.1875,-31.8125,94714.25,Kitchen,OPENFRIDGE
9684.0234375,4740.128977272728,689.528680268595,-709.3125,-88.59375,555.8125,-0.40625,-168.3125,-59.84375,-0.765625,0.296875,6.56640625,91.0234375,-48.3984375,-11.880859375,94717.921875,9843.724999999999,4759.386363636364,756.0477272727272,-730.0,-117.0,572.0,2.0,-132.0,-42.5,-0.6875,5.0,-1.21875,97.28125,-45.15625,-0.59375,94716.75,293.4818096205027,60.3581757938721,162.55421216835717,140.7941616962221,183.11724771656637,200.08585858688667,127.37748303952262,129.3007091515618,106.42007734869969,16.46843724836166,64.77341088799103,62.131544848791414,11.779002363247368,9.538213017147598,20.35356803357408,2.991545546714025,9950.0,4750.0,800.0,-1031.0,36.0,712.0,-12.0,-396.0,-16.0,-6.0625,-171.0,-126.5625,101.25,-68.25,-0.75,94714.25,9972.35,4898.136363636364,880.4921487603306,-385.0,243.0,986.0,216.0,31.0,119.0,37.1875,122.6875,138.9375,101.5,-35.9375,6.0,94723.5,9098.05,4626.7,322.12851239669425,-1031.0,-550.0,211.0,-309.0,-498.0,-286.0,-41.625,-171.0,-126.5625,69.875,-68.25,-56.1875,94714.25,fridge,OPENFRIDGE
9647.321875,4799.402556818182,496.6063145661157,-799.5625,119.875,146.4375,-11.375,-78.96875,-61.8125,12.16015625,52.46484375,17.51953125,90.998046875,-57.396484375,-57.4140625,94721.203125,9821.099999999999,4780.111363636364,448.1285123966943,-760.0,116.5,298.5,-7.5,-111.5,-50.5,-4.21875,44.65625,5.125,95.6875,-59.0,-49.0,94720.5,337.7174957348274,55.31786659738446,198.76677549733787,199.4459968140782,289.40592655054706,483.5266905599638,118.95723004779978,233.73482139782033,138.39551491427423,67.84106622472156,42.68918972916754,55.45318571391162,18.395776905513102,15.639151731432886,58.42737373450989,3.857563527794162,9950.0,4750.0,300.0,-1031.0,-315.0,712.0,63.0,-437.0,-203.0,-6.0625,-22.6875,-92.4375,101.25,-86.3125,-175.8125,94725.25,9972.35,4921.65,880.4921487603306,-371.0,718.0,727.0,340.0,521.0,256.0,183.625,145.25,116.8125,121.25,-35.9375,6.0,94725.75,8998.45,4703.65,251.67933884297523,-1218.0,-315.0,-708.0,-255.0,-437.0,-332.0,-85.0,-22.6875,-92.4375,51.5625,-86.3125,-175.8125,94714.25,fridge,OPENFRIDGE
9123.259375000001,4668.058380681818,608.863972107438,-807.15625,415.8125,-242.4375,-13.625,-18.75,-62.4375,-9.94921875,26.185546875,-11.435546875,63.01953125,-57.595703125,-104.1875,94719.4921875,9018.3,4697.1,612.5543388429752,-793.5,451.0,-293.0,-35.5,-27.0,-94.5,-44.0625,19.21875,-24.0625,48.90625,-54.75,-116.6875,94719.25,318.0087908192263,161.71458895413335,261.3059082905882,200.4076666769593,233.49855805315636,334.147923347459,125.93079256531753,228.27205048419324,144.10568198598264,77.21729530962915,52.94070615356443,48.324769923915255,33.117978704668296,14.697289842809058,37.52140518123213,6.060343189672752,8800.0,4500.0,950.0,-1218.0,20.0,-708.0,-255.0,-437.0,-332.0,-85.0,-83.3125,-92.4375,25.875,-49.5,-175.8125,94725.25,9806.65,4921.65,963.7475206611568,-371.0,726.0,355.0,340.0,521.0,256.0,183.625,145.25,110.1875,121.25,-37.75,-3.625,94725.75,8798.45,4446.854545454546,251.67933884297523,-1218.0,20.0,-708.0,-255.0,-437.0,-332.0,-85.0,-83.3125,-92.4375,25.875,-86.3125,-175.8125,94709.25,Kitchen,OPENFRIDGE
9347.0734375,4498.359375,630.6029829545455,-594.0625,-410.9375,-272.34375,22.9375,1.71875,-81.59375,-0.580078125,-42.767578125,57.98828125,240.5,-44.744140625,93.986328125,94728.0625,9365.35,4559.875,625.45,-514.0,-638.5,-383.5,-32.0,-26.0,-84.0,11.65625,-20.5,21.46875,247.84375,-35.90625,116.25,94731.0,214.46023880835796,122.20181908095128,87.10937626473,369.385098246331,524.3907640177283,377.2267743871266,260.6183636116475,241.70753246434006,228.37078782950977,45.38732624492276,66.43026341793292,69.86835698538862,33.37601937551629,21.823899758039158,54.44671007043217,4.843519115204857,9550.0,4600.0,750.0,-415.0,-805.0,-276.0,5.0,-569.0,-556.0,-140.9375,-27.875,-19.125,260.75,-82.5625,126.4375,94731.0,9644.6,4694.5,776.7727272727273,287.0,903.0,888.0,992.0,524.0,367.0,47.375,38.4375,216.6875,290.9375,-16.1875,130.125,94733.0,9014.7,4278.9,500.35,-1309.0,-940.0,-794.0,-295.0,-569.0,-556.0,-140.9375,-263.0,-19.125,159.4375,-82.5625,-31.6875,94720.75,Kitchen,OPENFRIDGE
9196.0046875,4698.8203125,658.5940340909092,-663.8125,-106.15625,250.34375,29.96875,-59.5,-129.59375,-25.6875,-4.857421875,61.298828125,188.044921875,-50.603515625,28.296875,94721.3671875,9181.2,4705.675,666.6113636363636,-741.0,-177.5,333.5,-45.5,-95.5,-140.5,-9.6875,-11.1875,91.875,180.6875,-51.34375,13.625,94723.5,147.52619305943225,107.87351154684626,81.3198289104832,416.065785547461,459.6026410951235,542.4650194980615,290.0735706873177,291.81876832785633,222.97705065985545,50.7731504086496,114.94045205559138,101.16134078066624,32.02112786319052,22.599475495799275,60.21850753043908,7.955010688898153,9050.0,4600.0,650.0,-1432.0,-101.0,-671.0,-69.0,-53.0,-556.0,-140.9375,-263.0,-142.875,133.125,-82.5625,-54.875,94731.0,9530.8,4868.7,776.7727272727273,287.0,903.0,1082.0,992.0,524.0,367.0,47.375,379.3125,216.6875,245.6875,-17.375,118.75,94731.0,9014.7,4567.35,496.9227272727273,-1432.0,-748.0,-671.0,-467.0,-569.0,-556.0,-140.9375,-263.0,-142.875,133.125,-82.5625,-54.875,94707.0,Kitchen,OPENFRIDGE
9367.817741935483,4766.191935483871,608.3338709677419,-691.7096774193549,165.90322580645162,250.93548387096774,33.32258064516129,-61.70967741935484,-81.38709677419355,9.213709677419354,21.594758064516128,3.7903225806451615,160.13306451612902,-49.01411290322581,-50.568548387096776,94715.96774193548,9392.45,4771.8,602.15,-678.0,186.0,304.0,31.0,-100.0,-92.0,-9.375,-4.125,-9.875,164.5625,-54.375,-54.875,94715.5,208.58527055235183,65.19445285295139,77.02716916149804,331.5414698594418,463.20430012675183,517.1873248952048,237.9440252239693,251.99116301283095,198.7362871444392,71.66883434378039,103.77488515683609,85.22455715818734,21.908972084415527,19.309699835276948,52.284277419914496,6.088151722637131,9050.0,4700.0,500.0,-1432.0,-566.0,-845.0,-69.0,-460.0,-552.0,-94.8125,-104.3125,-142.875,120.375,-79.4375,-135.0,94720.5,9648.95,4868.7,736.6318181818182,-166.0,928.0,1082.0,515.0,403.0,251.0,138.375,379.3125,177.5,191.8125,-17.375,19.375,94723.5,9015.8,4659.3,496.8227272727273,-1432.0,-566.0,-845.0,-467.0,-460.0,-552.0,-94.8125,-104.3125,-142.875,120.375,-79.4375,-135.0,94707.0,Kitchen,OPENFRIDGE
9226.683870967745,4703.88870967742,654.8107038123167,-844.1612903225806,419.0967741935484,-36.0,34.83870967741935,31.806451612903224,-73.80645161290323,-3.0524193548387095,-4.641129032258065,-1.3568548387096775,159.30443548387098,-63.935483870967744,-87.35887096774194,94719.45161290323,9195.1,4692.95,676.3318181818182,-880.0,390.0,-1.0,8.0,26.0,-41.0,-33.5625,-9.0,2.4375,158.6875,-65.625,-83.6875,94719.5,302.1839730437669,56.65417858916417,73.6275642661335,194.9781349748724,225.17938846450247,312.84223926232636,192.9898264631573,179.26059603360292,173.01318241776428,79.77267849041391,56.32918955360647,34.89273068376696,23.795853444014824,6.721011903580034,27.663293442745793,5.5638039126567564,8900.0,4700.0,700.0,-845.0,459.0,-845.0,-424.0,-126.0,-552.0,-90.8125,-94.75,4.0625,178.6875,-70.5,-135.0,94715.5,9648.95,4859.6,736.6318181818182,-347.0,928.0,416.0,515.0,403.0,251.0,138.375,186.4375,86.125,191.8125,-48.0625,-43.1875,94728.0,8864.15,4640.35,496.8227272727273,-1271.0,38.0,-845.0,-424.0,-283.0,-552.0,-90.8125,-94.75,-81.75,120.375,-72.4375,-135.0,94711.0,Kitchen,OPENFRIDGE
9376.913636363637,4468.087878787878,566.4685950413224,-587.8181818181819,-462.969696969697,-266.030303030303,-26.09090909090909,27.848484848484848,-64.93939393939394,-8.526515151515152,-48.45643939393939,46.708333333333336,223.7026515151515,-37.97537878787879,93.6590909090909,94720.36363636363,9386.5,4473.45,568.1681818181818,-567.0,-662.0,-408.0,7.0,15.0,-28.0,9.5,-21.6875,28.5,238.3125,-36.5,116.1875,94718.0,219.31355701965524,171.764608653776,118.58554211959434,371.6710116609727,409.20956465242875,429.2868712213667,218.44870159209626,268.47079929809416,178.1475756560308,60.30134496562929,92.65047605962064,61.42508789188698,46.41030345907928,20.23579229709325,52.10982498613124,9.937714405920326,9600.0,4250.0,450.0,-1499.0,-1179.0,-781.0,-691.0,86.0,60.0,35.0625,-351.3125,-52.4375,132.5625,-52.5625,-20.6875,94710.0,9639.05,4763.2,759.6681818181818,-54.0,372.0,804.0,361.0,822.0,217.0,56.4375,69.8125,227.5,278.125,-6.375,133.6875,94739.75,9083.1,4252.0,403.85,-1499.0,-1179.0,-781.0,-691.0,-658.0,-525.0,-174.375,-351.3125,-52.4375,132.5625,-76.8125,-20.6875,94710.0,fridge,OPENFRIDGE
9403.798437500001,4640.500994318182,711.6899147727272,-764.84375,-224.21875,297.9375,-37.125,-38.46875,-91.5625,-28.259765625,-22.146484375,31.6171875,160.287109375,-50.095703125,35.044921875,94714.2734375,9287.125,4644.9,715.6340909090909,-724.0,-225.0,490.0,-19.5,-46.0,-76.5,-9.4375,4.5625,13.25,139.0625,-50.28125,12.15625,94714.25,308.78574586971877,72.50300551538182,65.73232280577632,281.3162735536802,334.11971337067683,455.301880535711,222.96083121944204,296.86479863627284,167.97579270681794,54.347831341424076,108.92294901868553,73.90697439629986,45.202372734742085,12.051740609032757,47.994999409735115,5.512214945815427,9100.0,4650.0,700.0,-1499.0,-1179.0,-781.0,-32.0,-658.0,-525.0,-8.125,-351.3125,-92.625,139.0625,-52.5625,-20.6875,94710.0,10004.5,4763.2,807.85,-221.0,372.0,804.0,361.0,822.0,217.0,47.625,166.9375,227.5,239.125,-34.25,117.875,94732.75,9083.1,4482.95,576.9681818181818,-1499.0,-1179.0,-781.0,-691.0,-658.0,-525.0,-174.375,-351.3125,-92.625,94.5625,-76.8125,-20.6875,94707.75,Kitchen,OPENFRIDGE
9653.110606060605,4634.181705484598,630.104132231405,-779.8181818181819,36.60606060606061,104.96969696969697,4.151515151515151,-6.090909090909091,-58.63636363636363,16.863636363636363,49.53598484848485,18.09280303030303,106.79166666666667,-55.395833333333336,-53.683712121212125,94718.77272727272,9699.15,4641.3,622.7,-764.0,-14.0,49.0,-10.0,-50.0,-76.0,2.125,42.6875,5.0,109.4375,-55.5,-3.6875,94718.0,270.7514807662576,54.67084802615947,127.11390674172172,211.15773940135583,322.5081335596379,544.9573082389393,154.75991915143138,252.18016422247157,113.10056868275967,55.218666999410274,45.68463843611796,62.354263918448694,30.593481336069235,14.15515195336725,86.65636683439926,8.018378215359105,9900.0,4650.0,800.0,-925.0,-411.0,-924.0,-32.0,-389.0,-119.0,-85.3125,18.5,-92.625,54.25,-79.125,-177.0,94707.75,10006.65,4759.35,807.85,-335.0,710.0,781.0,358.0,597.0,237.0,149.5625,166.9375,140.5625,141.5,-36.25,179.6875,94732.75,9205.65,4531.630165289256,450.5,-1259.0,-411.0,-924.0,-335.0,-389.0,-274.0,-85.3125,-27.375,-92.625,54.25,-79.125,-177.0,94707.75,fridge,OPENFRIDGE
9341.277272727273,4587.690045078888,662.6736538943151,-725.0,291.42424242424244,-529.5757575757576,31.939393939393938,61.27272727272727,-34.84848484848485,5.607954545454546,26.10037878787879,-6.941287878787879,91.80492424242425,-52.05113636363637,-135.3598484848485,94720.18939393939,9214.1,4580.980165289256,622.7,-692.0,309.0,-607.0,28.0,49.0,-42.0,-23.5,28.25,-33.9375,97.1875,-50.0625,-157.8125,94718.0,396.6244088970754,57.83356485637034,166.3223818536523,265.20204561805326,182.66756524884048,321.11544169338754,153.38980967496246,224.20878561165827,111.45938756227568,60.00003107243514,53.32545348245853,65.44822720431756,28.971555274668013,16.115090936599966,63.917280203166314,6.948479572626815,8950.0,4550.0,850.0,-925.0,-113.0,-474.0,25.0,-405.0,-76.0,-55.375,-71.5,-81.9375,48.9375,-32.8125,-161.125,94718.0,10006.65,4698.880165289256,883.9132231404959,-335.0,710.0,49.0,358.0,597.0,237.0,149.5625,148.5,140.5625,137.5,-31.125,179.6875,94732.75,8929.45,4475.75,450.5,-1259.0,-113.0,-924.0,-335.0,-405.0,-274.0,-55.375,-71.5,-81.9375,48.9375,-79.125,-177.0,94710.25,Kitchen,OPENFRIDGE
9339.222727272725,4527.7484848484855,637.7965564738292,-559.6060606060606,-285.75757575757575,-187.33333333333334,31.0,-44.63636363636363,-41.90909090909091,-6.708333333333333,-46.43181818181818,51.07575757575758,166.40530303030303,-40.63257575757576,85.15530303030303,94724.77272727272,9359.75,4490.55,586.85,-543.0,-404.0,-388.0,-9.0,-77.0,-55.0,6.5,-31.5625,25.75,174.375,-36.125,130.625,94725.75,217.65103846629017,163.7121428018019,121.389287040923,371.12539486287,532.3974097363166,541.8701797171225,234.46228374730123,231.06949958045877,223.34941286529664,39.23847445561775,105.42167625828444,89.72843653840678,48.10843394158194,22.33063840371607,75.26514025886455,6.920972327248929,9550.0,4350.0,550.0,-1539.0,-834.0,-786.0,-49.0,-506.0,-559.0,-135.0,-419.875,-139.5625,175.5625,-23.625,134.625,94725.75,9614.4,4796.75,861.4318181818182,34.0,913.0,1148.0,709.0,384.0,368.0,41.875,191.375,231.75,247.5,-9.625,141.3125,94732.5,9039.75,4304.85,491.6,-1539.0,-986.0,-786.0,-602.0,-506.0,-559.0,-135.0,-419.875,-139.5625,99.0,-88.0,-38.0625,94711.75,fridge,OPENFRIDGE
9293.395454545456,4717.416666666667,761.3179063360881,-691.6666666666666,-6.666666666666667,191.0,42.0,-118.96969696969697,-90.0909090909091,-30.867424242424242,0.5378787878787878,44.91098484848485,130.34469696969697,-52.94318181818182,-5.456439393939394,94717.2803030303,9268.0,4756.85,785.5818181818182,-658.0,-36.0,-24.0,16.0,-154.0,-86.0,-24.875,-5.4375,63.625,129.75,-55.8125,-14.6875,94718.5,192.73029015782194,96.39232955954881,99.49209825332576,361.8360874300222,404.7759925769643,544.0402099109955,232.50228493500876,235.50762790837646,215.60139198825394,38.0308126951278,147.93901408857798,107.63993439308759,31.424505426681787,19.989684617876268,91.5510944859445,6.633472641106091,9550.0,4750.0,850.0,-1539.0,-688.0,-786.0,-44.0,-215.0,-559.0,-135.0,-419.875,-164.1875,175.5625,-88.0,-177.5625,94725.75,9570.95,4816.5,884.95,34.0,913.0,1244.0,709.0,384.0,445.0,36.8125,368.5625,231.75,182.25,-23.625,141.3125,94725.75,9039.75,4490.55,563.0318181818182,-1539.0,-688.0,-786.0,-602.0,-534.0,-559.0,-135.0,-419.875,-164.1875,68.625,-88.0,-177.5625,94707.75,Kitchen,OPENFRIDGE
9361.803125,4752.7203125,741.9562500000001,-797.875,166.6875,109.5625,10.40625,-82.5625,-32.78125,-1.060546875,20.119140625,-3.77734375,112.146484375,-58.94140625,-76.970703125,94714.15625,9418.125,4758.1,738.0250000000001,-891.5,168.0,22.0,-1.0,-136.0,-23.0,-16.28125,0.25,-15.09375,120.53125,-61.3125,-90.53125,94716.75,179.73189708181758,40.16825070145976,101.99469605912627,225.81604703114922,395.9443947193563,439.6934370085447,151.58429133334448,223.38422526394785,208.01887854385996,56.098282140962986,111.39984060010852,75.18531530475082,28.21110747602691,16.678039162245035,55.77570194550545,5.911903656074723,9550.0,4750.0,850.0,-892.0,-557.0,-492.0,-233.0,-534.0,-405.0,-79.625,-207.8125,-164.1875,62.0625,-86.5625,-177.5625,94707.75,9570.95,4816.5,884.95,-283.0,742.0,1244.0,304.0,375.0,512.0,116.625,368.5625,145.875,143.5625,-30.1875,23.0,94720.25,9015.5,4688.15,572.9,-1223.0,-557.0,-492.0,-233.0,-534.0,-405.0,-79.625,-207.8125,-164.1875,62.0625,-86.5625,-177.5625,94699.25,fridge,OPENFRIDGE
9128.423437500001,4647.0234375,856.9830965909091,-899.5,197.40625,-133.34375,14.84375,11.21875,-20.125,3.2109375,-7.544921875,-33.27734375,115.2265625,-69.150390625,-38.841796875,94714.453125,9048.525,4689.725,894.9340909090909,-917.0,158.5,-195.0,4.5,-34.5,6.0,-11.875,-6.125,-32.0625,123.625,-72.46875,-89.15625,94720.25,198.74565159957058,117.24761431259893,186.8608927824264,175.08320602575813,347.06379997055296,280.73884194929684,166.53917670936247,178.17438619274458,203.09599668867858,53.40091477767719,67.21086753128705,33.946830971967245,23.24321218769943,9.41101763183363,116.544614519426,8.874673437881095,8950.0,4700.0,650.0,-917.0,-406.0,-453.0,-235.0,-143.0,-405.0,-85.75,-21.1875,-105.6875,62.0625,-75.5,-177.6875,94720.25,9520.45,4784.45,1137.8,-586.0,742.0,489.0,304.0,375.0,512.0,116.625,171.1875,40.125,139.5,-47.625,170.25,94723.25,8918.25,4361.35,572.9,-1223.0,-406.0,-626.0,-235.0,-310.0,-405.0,-85.75,-207.8125,-105.6875,62.0625,-80.25,-177.6875,94699.25,Kitchen,OPENFRIDGE
9196.51818181818,4536.79393939394,664.8154269972451,-707.4242424242424,-283.75757575757575,-366.030303030303,20.393939393939394,-28.060606060606062,-78.0,-0.8446969696969697,-30.28219696969697,47.39772727272727,159.78787878787878,-52.520833333333336,27.206439393939394,94719.66666666667,9250.2,4529.05,634.4181818181818,-756.0,-352.0,-348.0,-8.0,-1.0,-56.0,6.1875,-25.5625,39.5625,159.375,-52.375,122.125,94721.0,222.37595798633654,19.5948843673856,90.44014666647755,271.0961580213548,509.1118510641246,219.21001414860203,184.48576154305573,209.36704304192963,173.4097387691937,51.86224457546456,46.63371787531049,54.20607925202136,32.0342298133551,21.913925560326742,132.4885050704139,3.246191678978102,9450.0,4550.0,600.0,-1304.0,-1023.0,-681.0,25.0,-12.0,-212.0,-216.375,-186.5625,-9.1875,101.5625,-79.8125,132.3125,94720.25,9438.4,4574.45,805.4181818181818,-294.0,1104.0,256.0,545.0,557.0,280.0,51.5,62.3125,143.875,211.375,-22.375,156.5,94722.5,8858.5,4512.4,566.3,-1304.0,-1023.0,-681.0,-339.0,-441.0,-489.0,-216.375,-186.5625,-22.125,101.5625,-79.8125,-177.8125,94712.0,Kitchen,OPENFRIDGE
9093.028124999999,4598.428125,779.8264204545455,-722.1875,81.3125,229.90625,16.09375,-60.59375,-91.6875,-32.3515625,-19.544921875,28.927734375,108.63671875,-54.166015625,-45.71875,94717.4375,9050.625,4572.7,794.0590909090909,-750.5,-76.0,289.0,-33.0,-41.0,-91.0,-11.6875,-14.3125,15.875,99.28125,-50.65625,-36.875,94715.75,214.6295288802049,66.95951947246836,54.433646372637526,270.8500879846457,414.87638559284215,505.1118278850287,193.1707183071242,223.23831607976493,152.4247963698397,63.0173042311434,68.59732540717526,66.56282865543389,24.061714155056308,19.97023118071091,90.11985606769072,4.091691029864177,8850.0,4550.0,800.0,-1304.0,-440.0,548.0,-339.0,19.0,-25.0,-216.375,-186.5625,-88.1875,97.0,-79.8125,-177.8125,94720.25,9626.0,4705.15,849.8,-77.0,1104.0,941.0,545.0,557.0,214.0,40.3125,103.5625,143.875,151.6875,-22.625,156.5,94723.0,8858.5,4512.4,634.4181818181818,-1304.0,-440.0,-652.0,-339.0,-441.0,-489.0,-216.375,-186.5625,-88.1875,76.1875,-79.8125,-177.8125,94712.0,Kitchen,OPENFRIDGE
9496.8484375,4578.864062500001,783.1767045454545,-685.5,25.375,604.8125,-27.15625,-94.0625,-28.0,-8.091796875,8.400390625,0.490234375,85.845703125,-44.19921875,-12.892578125,94716.828125,9634.35,4592.6,803.85,-719.5,-99.0,615.5,-35.5,-75.0,-20.5,-7.15625,9.25,4.625,86.96875,-39.9375,-10.15625,94716.0,354.63443205744363,94.27269234340014,56.675017767645585,212.3679096103224,361.883580459865,187.86533225828583,118.07600323657039,183.16728428477086,107.94801616309762,62.66617824038575,65.5835907360555,56.052473771196894,9.31905328489778,12.559289205114341,22.720177382141134,3.3932080524330916,9850.0,4700.0,800.0,-958.0,-474.0,548.0,-45.0,-480.0,-249.0,83.9375,-176.0625,-88.1875,97.0,-67.4375,11.5,94715.75,9893.8,4705.15,849.8,-77.0,693.0,941.0,300.0,208.0,214.0,105.6875,163.6875,99.25,103.0,-22.625,12.5625,94723.0,8888.35,4416.3,645.4,-958.0,-474.0,303.0,-272.0,-480.0,-249.0,-174.125,-176.0625,-88.1875,68.875,-67.4375,-51.1875,94712.0,fridge,OPENFRIDGE
9473.928124999999,4591.6828125,719.0015625,-851.3125,162.96875,156.65625,-9.96875,-27.125,-96.25,9.38671875,28.587890625,8.212890625,91.603515625,-60.837890625,-53.484375,94715.1015625,9609.05,4594.125,706.875,-864.0,267.5,272.0,-14.5,-65.0,-85.5,2.4375,21.96875,5.875,92.5625,-64.71875,-41.25,94716.0,377.5432087934417,107.88183470620346,99.25993448644843,167.17625188270128,344.08630616272666,422.34327953233617,115.24685549555312,241.30194576973074,124.47463791419908,52.1356632105339,48.6194277514947,44.45474394162079,14.748108556411005,12.531189509698342,48.94355444976815,1.9591178221661485,9850.0,4550.0,800.0,-806.0,380.0,-510.0,-45.0,-68.0,-113.0,83.9375,-50.0625,12.1875,83.9375,-73.0,-121.5625,94714.5,9893.8,4735.25,897.2,-361.0,723.0,882.0,196.0,464.0,93.0,105.6875,163.6875,99.25,117.25,-30.75,12.5625,94717.0,8817.1,4416.3,572.3,-1185.0,-474.0,-510.0,-297.0,-480.0,-435.0,-65.875,-50.0625,-78.375,68.875,-74.0,-125.875,94711.5,fridge,OPENFRIDGE
9044.284375,4516.348437500001,833.971875,-905.90625,347.65625,-21.03125,-7.25,21.875,-94.65625,-30.166015625,8.888671875,-1.435546875,73.86328125,-66.83203125,-78.55078125,94719.6875,8990.125,4557.65,899.6500000000001,-890.5,385.5,-1.5,-2.0,21.5,-74.0,-34.78125,-3.96875,0.1875,71.9375,-65.46875,-77.4375,94717.875,228.14596927487221,188.9988046063814,176.54612252047943,97.59705157332598,197.92220846797034,286.690288591331,100.03547757767515,195.5402359387135,126.80912996921155,45.35322449529599,39.49239965662837,13.57560300945459,27.882988501182158,4.0010532100079,31.165358912487324,7.67957072052943,8800.0,4750.0,600.0,-894.0,380.0,-510.0,-297.0,-314.0,-122.0,-92.75,-12.625,-25.8125,42.0625,-73.0,-121.5625,94714.5,9575.4,4735.25,1062.65,-703.0,723.0,393.0,196.0,464.0,65.0,98.3125,104.4375,21.75,117.25,-61.8125,-35.5625,94733.5,8786.05,4219.05,572.3,-1185.0,-26.0,-510.0,-297.0,-314.0,-435.0,-92.75,-40.9375,-25.8125,41.8125,-74.0,-125.875,94711.5,Kitchen,OPENFRIDGE
8838.0734375,2862.8578125000004,4194.460529246884,-707.0,-596.5625,233.21875,-0.34375,-9.34375,-8.3125,-1.244140625,2.189453125,0.294921875,177.921875,-48.431640625,65.7890625,94726.90625,8838.3,2864.25,4194.460529246885,-733.0,-568.5,250.5,-1.5,-12.5,-12.5,-1.6875,-1.03125,-3.625,177.125,-49.375,65.53125,94724.75,14.096276014601688,66.6716171528047,1.4333910522252661e-12,108.71477924278028,157.82226375097991,188.3231153261039,108.59175082286036,161.91308089876196,93.81637435317032,11.016018388365758,24.5924260791287,14.427527053825298,5.385305199965383,3.8728974321442173,1.8086200128292431,6.255239739094608,8850.0,2800.0,4200.0,-778.0,-1008.0,209.0,-18.0,-27.0,-190.0,-18.75,-41.375,-24.5,183.25,-53.5625,64.875,94734.25,8865.3,2980.55,4194.460529246888,-436.0,-200.0,607.0,174.0,438.0,332.0,31.6875,75.125,47.75,184.9375,-41.9375,70.3125,94734.75,8809.9,2755.35,4194.460529246881,-969.0,-1008.0,-601.0,-432.0,-385.0,-190.0,-22.875,-41.375,-24.5,169.9375,-53.5625,62.5,94718.25,counter,SLICETOMATO
