MEAN_POS_X,MEAN_POS_Y,MEAN_POS_Z,MEAN_ACC_X,MEAN_ACC_Y,MEAN_ACC_Z,MEAN_LINACC_X,MEAN_LINACC_Y,MEAN_LINACC_Z,MEAN_GYRO_X,MEAN_GYRO_Y,MEAN_GYRO_Z,MEAN_Heading,MEAN_Roll,MEAN_Pitch,MEAN_Pressure,MEDIAN_POS_X,MEDIAN_POS_Y,MEDIAN_POS_Z,MEDIAN_ACC_X,MEDIAN_ACC_Y,MEDIAN_ACC_Z,MEDIAN_LINACC_X,MEDIAN_LINACC_Y,MEDIAN_LINACC_Z,MEDIAN_GYRO_X,MEDIAN_GYRO_Y,MEDIAN_GYRO_Z,MEDIAN_Heading,MEDIAN_Roll,MEDIAN_Pitch,MEDIAN_Pressure,STD_POS_X,STD_POS_Y,STD_POS_Z,STD_ACC_X,STD_ACC_Y,STD_ACC_Z,STD_LINACC_X,STD_LINACC_Y,STD_LINACC_Z,STD_GYRO_X,STD_GYRO_Y,STD_GYRO_Z,STD_Heading,STD_Roll,STD_Pitch,STD_Pressure,MODE_POS_X,MODE_POS_Y,MODE_POS_Z,MODE_ACC_X,MODE_ACC_Y,MODE_ACC_Z,MODE_LINACC_X,MODE_LINACC_Y,MODE_LINACC_Z,MODE_GYRO_X,MODE_GYRO_Y,MODE_GYRO_Z,MODE_Heading,MODE_Roll,MODE_Pitch,MODE_Pressure,MAX_POS_X,MAX_POS_Y,MAX_POS_Z,MAX_ACC_X,MAX_ACC_Y,MAX_ACC_Z,MAX_LINACC_X,MAX_LINACC_Y,MAX_LINACC_Z,MAX_GYRO_X,MAX_GYRO_Y,MAX_GYRO_Z,MAX_Heading,MAX_Roll,MAX_Pitch,MAX_Pressure,MIN_POS_X,MIN_POS_Y,MIN_POS_Z,MIN_ACC_X,MIN_ACC_Y,MIN_ACC_Z,MIN_LINACC_X,MIN_LINACC_Y,MIN_LINACC_Z,MIN_GYRO_X,MIN_GYRO_Y,MIN_GYRO_Z,MIN_Heading,MIN_Roll,MIN_Pitch,MIN_Pressure,LOCATION,ACTIVITY
8985.20303030303,8365.64913598798,288.56363636363636,-112.03030303030303,-965.6969696969697,-137.06060606060606,64.42424242424242,-16.636363636363637,-89.21212121212122,-7.964015151515151,21.770833333333332,-14.928030303030303,149.74621212121212,-9.68939393939394,92.53977272727273,94876.01515151515,8955.0,8405.277272727273,316.15,-237.0,-958.0,-67.0,15.0,-2.0,-19.0,0.875,-0.6875,-14.6875,133.75,-12.4375,92.625,94872.0,66.96057485028263,85.24690509996513,59.2722192946547,405.2979987651436,154.97892696437893,276.45003384358847,334.04781004212464,154.4408904285508,263.58582065142434,45.09853045060837,140.0345762153308,42.79345813193505,26.837964758734937,11.052216318852619,3.761402527006443,7.191558472096,8950.0,8450.0,300.0,-250.0,-1053.0,46.0,-840.0,-461.0,-603.0,-143.5625,-202.75,-123.5,130.625,-14.0,88.0625,94870.0,9140.9,8469.527272727273,351.95,1016.0,-663.0,543.0,829.0,275.0,497.0,66.75,382.5625,44.375,206.4375,16.6875,104.6875,94886.25,8920.0,8211.32438016529,139.35,-766.0,-1440.0,-678.0,-840.0,-461.0,-603.0,-143.5625,-202.75,-123.5,117.5625,-24.4375,86.125,94868.5,FrontEntrance,TIESHOES
8942.198484848484,8294.707012271478,189.61060606060605,147.0,-924.9090909090909,-239.3030303030303,13.909090909090908,6.818181818181818,-79.87878787878788,-8.776515151515152,15.462121212121213,-10.268939393939394,197.27651515151516,8.704545454545455,99.73295454545455,94875.26515151515,8943.5,8263.124380165289,148.0,158.0,-958.0,-360.0,-13.0,-9.0,-84.0,1.125,-33.3125,-14.1875,198.5625,11.75,100.0,94872.25,16.180464131401706,87.55844150279084,95.29613856091554,754.4421780361965,300.4863103824744,537.5271786645121,763.63167510736,294.1609311398965,552.4000338056514,71.0400914095437,156.36884850275837,44.64328966071594,35.08505649188591,13.25561195209153,9.673948090719312,6.019155423111765,8950.0,8250.0,100.0,-1239.0,-1452.0,-1242.0,-1649.0,-593.0,-1040.0,1.125,-202.75,-28.0,117.5625,13.1875,88.0625,94870.0,8968.7,8455.227272727274,351.95,3164.0,-24.0,822.0,2940.0,793.0,1065.0,112.1875,382.5625,66.5625,256.375,29.9375,116.4375,94886.25,8905.0,8189.224380165289,81.1,-1239.0,-1452.0,-1242.0,-1649.0,-593.0,-1040.0,-143.5625,-202.75,-123.5,117.5625,-17.875,86.125,94870.0,FrontEntrance,TIESHOES
8900.445588235294,8270.295393777345,84.27794117647059,58.3235294117647,-895.0882352941177,-195.58823529411765,0.058823529411764705,22.176470588235293,5.088235294117647,8.716911764705882,-32.09007352941177,11.560661764705882,192.96323529411765,3.7371323529411766,103.63970588235294,94875.83823529411,8915.075,8280.556198347109,102.025,-6.0,-914.0,-202.5,-34.0,7.0,-84.5,15.25,-36.90625,4.84375,187.3125,3.78125,105.9375,94875.25,48.06660682914647,39.47640939506829,60.66544270057741,718.6343412329298,303.14366707503643,504.2528897558193,708.5401099048864,305.00019578615036,504.13678805411405,56.81682471641314,98.35585080747667,39.84577716261457,34.895264415241584,16.054187209076424,8.625783051074654,4.113854250145944,8950.0,8300.0,100.0,-40.0,-606.0,-146.0,-1649.0,-593.0,-1040.0,-131.5,-198.6875,-44.625,166.1875,13.1875,108.375,94876.0,8968.7,8325.45,172.1,3164.0,-24.0,822.0,2940.0,793.0,1065.0,112.1875,330.75,103.8125,256.375,29.9375,116.4375,94886.25,8808.4,8189.224380165289,-50.7,-1239.0,-1452.0,-1242.0,-1649.0,-593.0,-1040.0,-131.5,-198.6875,-44.625,140.1875,-18.8125,83.3125,94872.25,FrontEntrance,TIESHOES
8862.080303030303,8298.69109691961,14.863636363636362,-323.3030303030303,-983.9090909090909,-95.6969696969697,9.303030303030303,-66.75757575757575,-72.60606060606061,14.662878787878787,11.426136363636363,30.142045454545453,155.86742424242425,-16.806818181818183,91.0340909090909,94869.04545454546,8865.35,8300.85,11.6,-239.0,-892.0,-146.0,109.0,-27.0,-86.0,16.75,17.75,30.0625,157.3125,-15.6875,89.25,94873.0,48.33067888805503,31.81524125269208,72.5766494308854,472.54335018390674,554.5044726846419,495.65029789462477,446.90431616066354,384.677058575033,519.3176977651746,69.63870197906189,139.94771402134847,74.47606098830553,14.643607600204566,10.889687500407627,14.059427536829238,7.317160519503575,8850.0,8300.0,0.0,-205.0,-3292.0,-146.0,-1289.0,-347.0,-1842.0,-237.0,-291.25,-119.9375,166.1875,-11.75,83.3125,94857.5,8936.9,8359.05,172.1,540.0,-174.0,1233.0,885.0,470.0,1301.0,185.625,426.75,295.125,183.0,1.25,109.8125,94876.0,8778.85,8224.9,-94.2,-1564.0,-3292.0,-1717.0,-1289.0,-1272.0,-1842.0,-237.0,-291.25,-119.9375,134.0,-47.75,71.125,94857.5,FrontEntrance,TIESHOES
8955.379687499999,8189.989914772727,78.8546875,-550.78125,-872.96875,-12.59375,-43.28125,-78.21875,-136.4375,9.419921875,37.228515625,19.837890625,145.357421875,-29.2734375,81.986328125,94867.390625,8946.15,8219.45,41.8,-395.5,-761.5,-90.5,-50.0,-22.0,-185.0,12.625,44.6875,25.375,145.84375,-24.25,78.5,94864.0,110.23868522099671,130.03229004337672,118.81705397807262,474.676714051683,598.6125077842981,611.7512597703785,485.1039951275496,400.57988083205,549.5640464304704,74.57317767956232,232.87997025660556,81.81755843207519,14.118399064015593,14.8914481946746,19.18783646320921,10.896125661696633,8900.0,8250.0,-0.0,-205.0,-3292.0,-1717.0,-1289.0,84.0,253.0,-237.0,-523.8125,-119.9375,121.4375,-12.4375,106.5,94860.0,9108.05,8359.05,250.75,98.0,-121.0,1233.0,885.0,501.0,1301.0,185.625,535.125,295.125,176.25,-9.9375,117.0,94888.25,8778.85,7957.204545454546,-94.2,-1564.0,-3292.0,-1717.0,-1289.0,-1272.0,-1842.0,-237.0,-523.8125,-119.9375,121.4375,-50.4375,53.1875,94857.5,FrontEntrance,TIESHOES
9055.477272727272,8006.153643876785,212.39848484848486,-553.8181818181819,-743.2121212121212,47.45454545454545,-64.54545454545455,16.09090909090909,-152.96969696969697,1.2253787878787878,-14.301136363636363,-5.142045454545454,150.02083333333334,-33.20643939393939,81.14393939393939,94870.81060606061,9065.05,7970.104545454546,225.7,-545.0,-786.0,49.0,-47.0,-5.0,-165.0,4.9375,-52.5625,4.5,149.8125,-37.0,80.4375,94870.75,54.79431296178958,107.66433490299774,50.79582057864185,415.9730651245234,266.7284149626448,495.13710796285324,314.54332878288517,260.36025085882966,327.94716465161014,38.401014630563125,250.5716873893163,56.794062156807435,17.18030862811526,12.055550589327604,19.041513068391183,9.479630774519233,9100.0,7950.0,250.0,-278.0,-1393.0,-828.0,-781.0,-737.0,-726.0,-96.75,-523.8125,-140.6875,121.4375,-12.4375,53.1875,94870.75,9132.35,8214.0,267.9,98.0,-121.0,872.0,467.0,598.0,349.0,60.3125,535.125,87.4375,185.9375,-11.4375,117.0,94888.25,8933.75,7857.544214876032,53.05,-1428.0,-1393.0,-828.0,-781.0,-737.0,-726.0,-96.75,-523.8125,-140.6875,121.4375,-50.4375,53.1875,94860.0,FrontEntrance,TIESHOES
8977.18088235294,8135.595260087507,240.92941176470586,-563.1470588235294,-756.1470588235294,26.705882352941178,-56.73529411764706,44.73529411764706,-155.11764705882354,-1.2389705882352942,-2.2113970588235294,2.0496323529411766,153.42279411764707,-32.8235294117647,81.09742647058823,94870.57352941176,8928.925,8135.376033057852,242.3,-595.5,-771.5,79.0,-31.0,13.5,-143.5,2.25,5.03125,6.96875,150.90625,-35.84375,81.09375,94870.75,94.90424840787968,221.22068906133137,25.216607435430017,352.0374577481124,192.46615323895912,363.8988811770725,295.85790086535854,189.4069386626246,262.7954342929211,29.156153965496113,216.50212083798428,42.06109086131829,14.461245385259584,6.520409220915481,11.954797589716701,7.8186183706829855,8900.0,7900.0,250.0,-1175.0,-1092.0,233.0,44.0,-247.0,-726.0,-84.25,-506.75,-140.6875,149.8125,-37.5,67.4375,94862.5,9132.35,8491.459090909091,287.65,32.0,-302.0,797.0,550.0,598.0,349.0,50.625,416.0,87.4375,185.9375,-19.5,109.9375,94884.0,8868.75,7857.544214876032,179.3,-1175.0,-1092.0,-717.0,-584.0,-247.0,-726.0,-84.25,-506.75,-140.6875,124.75,-39.9375,60.4375,94862.5,FrontEntrance,TIESHOES
8899.89411764706,8397.112813231979,279.04411764705884,-574.4705882352941,-731.1176470588235,7.176470588235294,-28.941176470588236,44.61764705882353,-84.08823529411765,-3.974264705882353,-19.84926470588235,7.6875,152.93014705882354,-33.74632352941177,84.11029411764706,94875.7205882353,8888.599999999999,8418.238767843726,287.625,-607.5,-745.0,91.0,-26.5,14.5,-128.0,1.78125,-44.375,2.96875,152.78125,-35.09375,81.8125,94880.25,37.66621499737088,99.54737955589837,44.886904624551896,288.9046435212289,154.53581809109426,299.4501497025218,277.00803414412394,140.15640931860298,199.09223804894276,27.180879626053116,165.50863058670197,33.912655186790985,19.038044824385043,4.615134368644288,14.881683458614102,8.540404128248076,8900.0,8400.0,300.0,-1175.0,-998.0,102.0,-14.0,-205.0,-377.0,-82.875,-493.6875,-55.375,124.75,-37.75,70.9375,94863.5,9031.7,8515.25909090909,337.1,32.0,-302.0,496.0,550.0,481.0,328.0,35.1875,265.625,95.9375,180.8125,-21.75,109.5,94884.0,8845.65,8156.176033057852,179.3,-1175.0,-998.0,-582.0,-584.0,-205.0,-377.0,-82.875,-493.6875,-55.375,108.5625,-39.6875,60.4375,94862.5,FrontEntrance,TIESHOES
9038.824242424242,8366.795488809023,311.1454545454546,-564.5454545454545,-758.3333333333334,41.36363636363637,-24.575757575757574,23.03030303030303,-49.93939393939394,-7.570075757575758,-34.64772727272727,-0.6022727272727273,136.7651515151515,-33.80113636363637,84.2159090909091,94878.12121212122,9031.7,8406.268444778361,311.7,-598.0,-766.0,102.0,-29.0,14.0,8.0,-2.875,-56.5,-4.75,129.6875,-34.5,82.125,94880.25,161.39497171206855,121.43589334051485,20.503682457504606,203.9145180751439,187.56310049331842,374.9524818378505,211.43586945913268,186.26820126642738,291.3204785320133,33.652923021986794,110.09415339544964,41.17570492795382,27.690700780983327,3.4383683045903277,14.24251183212962,4.043765075378204,8900.0,8500.0,300.0,-652.0,-964.0,102.0,-407.0,-345.0,-1101.0,-10.8125,-213.625,-112.3125,178.875,-33.9375,64.875,94880.25,9348.1,8515.25909090909,344.7,29.0,-293.0,786.0,455.0,498.0,468.0,84.625,359.9375,95.9375,180.8125,-27.0,109.5,94882.75,8845.65,8055.834347504827,272.55,-878.0,-1064.0,-1079.0,-407.0,-345.0,-1101.0,-82.875,-213.625,-112.3125,95.9375,-38.4375,64.875,94871.0,FrontEntrance,TIESHOES
9216.880303030302,8081.617269553049,392.1409090909091,-276.6666666666667,-863.7272727272727,-9.575757575757576,54.75757575757576,15.363636363636363,-20.272727272727273,-3.774621212121212,14.3125,-14.738636363636363,154.01704545454547,-21.577651515151516,88.94507575757575,94866.40151515152,9248.4,8018.60252932301,359.6,-313.0,-834.0,-37.0,28.0,25.0,7.0,-2.875,25.4375,-4.75,132.25,-22.625,95.25,94871.0,92.92221792596386,201.03556623457104,97.26410923882833,367.28860132961745,186.162944877477,377.0053075142834,272.56329887558115,182.3816085474729,310.26755316251575,27.592435820356155,144.54350116995488,38.326909805903824,41.81243656784494,13.45190026276774,10.09524657026236,15.222431458462072,9300.0,7850.0,300.0,-847.0,-1135.0,-1079.0,-477.0,111.0,-1101.0,-10.8125,-262.875,-124.375,95.9375,-36.1875,96.3125,94840.0,9348.1,8406.368444778362,555.1,862.0,-293.0,786.0,971.0,498.0,701.0,84.625,366.125,35.5625,218.8125,-2.0625,98.75,94882.75,9036.35,7847.8772727272735,272.55,-847.0,-1135.0,-1079.0,-477.0,-345.0,-1101.0,-72.625,-262.875,-124.375,95.9375,-38.4375,68.875,94840.0,FrontEntrance,TIESHOES
9221.15,7932.241994527238,513.0545454545454,-114.75757575757575,-890.7575757575758,-101.33333333333333,53.515151515151516,47.06060606060606,24.333333333333332,-0.7973484848484849,1.8428030303030303,-13.342803030303031,185.15719696969697,-10.549242424242424,97.28219696969697,94854.12878787878,9199.0,7915.827272727273,539.9,-133.0,-864.0,-156.0,-3.0,73.0,-30.0,-2.4375,0.875,-15.0625,181.375,-10.625,96.375,94848.5,60.63148418932201,60.10860458444181,63.32184452713124,280.9439479574874,180.45654433668898,265.5517448006446,263.06904051172114,196.46404559644296,273.81456620615836,28.17546700574723,119.06451269748547,36.9700678693545,17.58960126215353,4.720269767054521,5.436222937589852,12.087590681556373,9150.0,7900.0,550.0,-692.0,-1254.0,-139.0,-477.0,-57.0,-446.0,-7.5,-262.875,-124.375,178.8125,-13.6875,95.5,94840.0,9337.45,8047.8772727272735,577.25,862.0,-515.0,579.0,971.0,427.0,701.0,62.1875,366.125,57.75,218.8125,-2.0625,110.5,94876.5,9145.5,7847.8772727272735,359.6,-692.0,-1254.0,-692.0,-477.0,-577.0,-446.0,-57.8125,-262.875,-124.375,129.625,-22.625,81.1875,94840.0,FrontEntrance,TIESHOES
9227.463636363636,7970.86170798898,451.7409090909091,-309.75757575757575,-841.3030303030303,-216.57575757575756,-5.575757575757576,21.818181818181817,8.909090909090908,-8.149621212121213,-4.113636363636363,11.948863636363637,173.96022727272728,-17.44128787878788,104.88257575757575,94859.89393939394,9253.9,7973.068181818181,484.25,-298.0,-872.0,-198.0,-49.0,62.0,-2.0,-8.6875,-28.5,8.6875,178.1875,-13.875,99.8125,94856.75,49.46502911263303,42.85035112718445,116.67528220352727,248.9328511746479,346.45918634527544,238.0674839072724,205.91321447138694,348.0960225413254,241.19939412708467,34.739157549296564,92.02196798287765,43.06165653242756,10.800614608590358,9.561771563783223,10.774259028409746,10.576549513958327,9250.0,8000.0,550.0,-818.0,-1409.0,-671.0,-317.0,-8.0,-83.0,-87.0625,-205.0625,-54.8125,178.8125,-13.6875,96.375,94873.0,9301.45,8047.8772727272735,577.25,250.0,-13.0,333.0,686.0,693.0,695.0,62.1875,225.5,100.4375,190.875,-6.125,128.1875,94876.5,9145.5,7895.527272727273,257.55,-818.0,-1409.0,-671.0,-317.0,-633.0,-405.0,-87.0625,-205.0625,-54.8125,147.5,-38.5,94.0625,94848.0,FrontEntrance,TIESHOES
9271.870588235293,8001.8458556149735,300.70882352941175,-449.44117647058823,-774.1176470588235,-304.70588235294116,16.61764705882353,12.764705882352942,-88.41176470588235,-4.2849264705882355,-16.422794117647058,9.134191176470589,152.56433823529412,-27.75551470588235,104.50183823529412,94872.11029411765,9269.125,8001.743181818181,262.525,-477.5,-791.5,-335.0,-49.0,-14.5,-33.5,-7.78125,-33.09375,18.59375,159.03125,-26.65625,103.78125,94873.0,19.572898384210944,36.82594747487927,76.70788102076075,278.5830153382248,352.6504634565423,426.3389268767397,320.4504419403263,326.06032708441506,274.71341735630483,38.10388508429497,245.68221780301448,59.67744963844138,27.766360201313745,10.349770433323844,17.02687329288998,6.590337042603805,9250.0,8000.0,250.0,-1289.0,-1409.0,-1183.0,-890.0,-8.0,-269.0,32.5625,-598.375,-139.6875,100.875,-43.875,70.9375,94873.0,9308.5,8060.6,484.25,63.0,-13.0,653.0,686.0,693.0,364.0,101.875,567.3125,100.4375,203.5625,-7.125,128.1875,94881.5,9234.55,7926.618181818181,218.85,-1289.0,-1409.0,-1183.0,-890.0,-633.0,-828.0,-87.0625,-598.375,-139.6875,100.875,-43.875,70.9375,94856.75,FrontEntrance,TIESHOES
9269.607575757575,8013.739807162535,217.8212121212121,-500.42424242424244,-702.7575757575758,-326.72727272727275,48.696969696969695,64.03030303030303,-147.84848484848484,4.043560606060606,-23.619318181818183,-3.268939393939394,138.03219696969697,-33.246212121212125,102.88068181818181,94876.25757575757,9268.8,8027.15,218.85,-470.0,-755.0,-390.0,134.0,22.0,-235.0,3.25,-32.0625,2.25,135.6875,-33.1875,105.0625,94875.25,22.549692075267654,49.27579462565311,33.95712377005521,358.02557784876126,232.7551060534213,528.3198174831742,388.50414129456885,200.41589333940135,352.93121861880905,37.07270387060353,285.70766094107285,56.77192429275638,23.762445963884968,5.870093101144009,15.674113153649525,3.45364665091754,9250.0,8050.0,200.0,-1375.0,-1145.0,-1243.0,-890.0,-331.0,-828.0,-53.875,-598.375,-139.6875,100.875,-43.875,70.9375,94873.0,9308.5,8108.054545454545,263.2,125.0,-211.0,653.0,709.0,513.0,653.0,101.875,567.3125,107.875,203.5625,-19.0625,127.375,94881.5,9229.6,7918.504545454545,168.75,-1375.0,-1145.0,-1243.0,-890.0,-331.0,-828.0,-53.875,-598.375,-139.6875,100.875,-43.875,70.9375,94871.5,FrontEntrance,TIESHOES
9264.481818181817,8080.295366892062,187.7969696969697,-490.3030303030303,-707.060606060606,-343.3939393939394,38.54545454545455,57.96969696969697,-74.06060606060606,4.28219696969697,15.941287878787879,5.545454545454546,145.73295454545453,-31.28030303030303,108.75568181818181,94874.21212121213,9260.15,8089.154545454546,188.05,-411.0,-703.0,-390.0,84.0,47.0,-93.0,4.875,6.5625,5.125,140.8125,-33.0,110.0,94874.5,20.875373567697025,93.17885617908689,14.652953730572653,312.7803227554929,185.2867607578081,425.9187818259735,300.44811229531496,162.7504771207455,305.52863402980944,27.74923070975893,203.59505763885633,33.572330645089,24.023625622877613,5.884801523229397,12.774967546325083,4.712483924094435,9250.0,8100.0,200.0,-1375.0,-1121.0,-1243.0,-879.0,-191.0,-808.0,-53.875,-514.625,-55.5,175.0625,-37.625,78.6875,94874.5,9305.9,8213.283471074381,217.05,125.0,-211.0,581.0,709.0,513.0,653.0,65.625,562.375,107.875,187.5625,-19.8125,126.875,94881.5,9229.6,7918.504545454545,157.5,-1375.0,-1121.0,-1243.0,-879.0,-191.0,-808.0,-53.875,-514.625,-55.5,101.875,-38.5625,78.6875,94867.0,FrontEntrance,TIESHOES
8835.810937499999,8288.468282776108,90.5625,-340.6875,-851.9375,122.8125,119.90625,-39.65625,-4.59375,-13.455078125,-39.474609375,-0.7109375,158.8125,-29.595703125,81.3046875,94880.953125,8827.15,8295.64859128475,82.025,-321.5,-808.0,111.0,100.5,-4.5,-4.5,-11.78125,-0.34375,0.40625,161.65625,-29.375,79.59375,94882.0,41.48963480035634,53.01751684468114,37.45962988295189,317.6269304317313,221.15298128000052,429.0472894832261,339.73256648998336,213.1120573593514,390.98682919612355,61.37859532693963,180.86218859939592,73.49420811541611,18.723886385335916,10.617323891959034,10.490055654815613,8.38403761284194,8800.0,8350.0,50.0,-1128.0,-1281.0,-689.0,-642.0,-524.0,-719.0,-113.875,-437.5625,57.625,128.625,-49.875,73.625,94888.75,8907.85,8365.754545454545,158.3,248.0,-411.0,1269.0,1158.0,334.0,1160.0,155.125,252.0,129.5625,193.3125,-6.25,97.375,94891.0,8773.9,8201.05,40.2,-1128.0,-1281.0,-689.0,-642.0,-524.0,-719.0,-113.875,-437.5625,-197.5,128.625,-49.875,63.9375,94865.0,FrontEntrance,TIESHOES
8848.289393939394,8227.663215172006,76.87727272727274,-332.42424242424244,-847.6666666666666,160.9090909090909,-24.151515151515152,33.03030303030303,44.96969696969697,0.7651515151515151,5.003787878787879,0.9337121212121212,160.07954545454547,-19.18371212121212,82.24810606060606,94874.26515151515,8820.85,8235.180202854997,80.25,-232.0,-899.0,174.0,62.0,11.0,128.0,0.9375,-5.9375,-13.5625,165.3125,-12.1875,81.8125,94872.25,58.72260366222876,35.85150276904008,24.046709399719234,674.5545303338637,489.39993018661806,738.2368930277548,701.7519202508516,510.25033591662657,742.7771151583969,54.79158851010528,221.03157470473218,73.54145557662424,17.24942164400177,14.096624736212512,7.180371547400045,9.220590789508867,8800.0,8250.0,100.0,-441.0,-2085.0,12.0,-130.0,-155.0,-3144.0,17.875,-360.0,-197.5,124.25,-19.875,73.9375,94864.25,8954.55,8279.230202854997,119.4,678.0,1227.0,1495.0,1158.0,2188.0,1426.0,173.375,726.0,191.4375,182.25,2.25,96.25,94892.75,8773.9,8146.6,32.7,-3126.0,-2085.0,-2956.0,-3086.0,-1328.0,-3144.0,-135.5625,-360.0,-197.5,124.25,-49.875,65.375,94864.25,FrontEntrance,TIESHOES
8995.55,8200.256316066485,138.34411764705882,-124.1470588235294,-859.3529411764706,214.61764705882354,-63.38235294117647,22.941176470588236,-96.55882352941177,12.301470588235293,20.887867647058822,5.255514705882353,147.74264705882354,-2.6525735294117645,70.29227941176471,94873.05147058824,8955.7,8226.599151355782,122.375,-60.5,-904.0,358.0,54.5,-25.0,27.5,8.34375,-6.46875,0.96875,143.0625,-2.78125,64.75,94873.0,124.64689095297341,88.46947704030758,69.7182487357049,726.2458108095083,468.67342654418024,712.0725199153092,684.1007375183013,491.9681525277874,739.9002877610449,50.34326409954045,204.1278697557856,46.59676862731313,18.580666963976377,9.1966390741173,11.303007701218544,12.766667568404023,8950.0,8250.0,100.0,-3126.0,-823.0,-2956.0,-3086.0,-155.0,-3144.0,-135.5625,-360.0,-63.0,124.25,6.0625,54.5625,94864.25,9238.85,8311.518519909843,275.15,925.0,1227.0,1495.0,895.0,2188.0,1426.0,173.375,726.0,191.4375,182.25,12.1875,89.6875,94892.75,8804.65,7992.666484529745,32.7,-3126.0,-2085.0,-2956.0,-3086.0,-1328.0,-3144.0,-135.5625,-360.0,-63.0,124.25,-19.875,54.5625,94856.75,FrontEntrance,TIESHOES
9171.045454545454,8005.708437906834,213.65909090909088,-203.63636363636363,-810.3636363636364,211.57575757575756,14.090909090909092,7.909090909090909,-94.84848484848484,-10.657196969696969,2.928030303030303,17.875,134.86174242424244,-12.284090909090908,71.0340909090909,94876.39393939394,9205.4,7992.666484529745,219.65,-212.0,-812.0,202.0,-11.0,7.0,5.0,-13.6875,25.25,15.9375,132.1875,-5.8125,63.6875,94880.0,102.12407845639623,206.83704199017035,37.03867162875482,466.8967242724708,186.07908570380403,341.5107090472265,286.92849323006027,173.31697183851537,322.07638081013886,30.256464480736227,102.26801243538192,29.383110582441745,8.8350326622214,19.35421699666451,14.933258835908099,11.705372414887623,9200.0,7800.0,200.0,-1070.0,-823.0,488.0,-799.0,-411.0,-1267.0,-54.6875,-303.5625,-45.25,130.75,6.0625,54.5625,94873.0,9302.0,8311.518519909843,277.0,925.0,-448.0,754.0,895.0,328.0,292.0,67.3125,196.3125,73.1875,168.0,12.1875,99.375,94892.75,8956.85,7783.488873710812,125.35,-1070.0,-1240.0,-594.0,-799.0,-411.0,-1267.0,-54.6875,-303.5625,-45.25,124.625,-38.8125,54.5625,94856.75,FrontEntrance,TIESHOES
9294.174242424242,7815.32701183683,204.6848484848485,-502.93939393939394,-716.7878787878788,30.303030303030305,76.15151515151516,0.9696969696969697,22.0,-19.111742424242426,11.734848484848484,20.196969696969695,122.18371212121212,-36.95075757575758,92.58333333333333,94876.74242424243,9282.4,7807.616146438086,205.9,-579.0,-716.0,87.0,-39.0,-3.0,21.0,-20.0,-5.0625,15.9375,127.875,-38.4375,91.5625,94880.0,75.04765165506119,30.257057368285256,31.843681881302228,508.5409852825249,220.2803267395544,403.7909023282103,527.5676568704317,186.68263256936973,244.95586337134287,31.748188146412687,205.45832972050275,90.97564454669477,15.026197333235993,9.852522846428418,24.43182811949234,7.398660364511534,9300.0,7800.0,200.0,-1115.0,-679.0,202.0,-60.0,-327.0,-14.0,-86.9375,-263.1875,-150.25,130.75,-52.9375,60.1875,94868.25,9470.0,7936.966484529745,277.0,1918.0,-134.0,760.0,2664.0,328.0,950.0,100.8125,836.4375,349.375,142.5625,-9.0625,149.0,94884.25,9204.9,7783.488873710812,154.05,-1115.0,-1137.0,-1090.0,-556.0,-327.0,-666.0,-86.9375,-263.1875,-150.25,88.4375,-52.9375,60.1875,94868.0,FrontEntrance,TIESHOES
9360.286764705881,7823.110877491493,160.6794117647059,-296.1764705882353,-739.8529411764706,-284.5,76.1470588235294,-51.911764705882355,-24.970588235294116,-1.84375,49.30882352941177,-0.3088235294117647,167.09558823529412,-25.43198529411765,111.16911764705883,94873.22794117648,9363.35,7821.564876033058,174.7,-396.5,-781.5,-282.0,-41.0,-66.0,0.0,-5.71875,-29.78125,-3.09375,128.875,-38.625,117.34375,94869.875,67.05642163995246,15.873982321528349,46.71007632135195,625.5439073603471,235.87723210910158,487.8397184620077,559.427420068431,205.0465383460558,372.6214656786321,54.63612251111203,236.62478786527439,99.85467416191926,74.01389969033362,26.338394494305383,22.559819100210547,6.324066480115448,9350.0,7800.0,200.0,-1115.0,-1115.0,-1100.0,-793.0,-402.0,-861.0,-86.9375,-263.1875,-150.25,88.4375,20.6875,63.5,94868.25,9470.0,7858.75,216.5,1918.0,-134.0,760.0,2664.0,355.0,950.0,161.125,836.4375,349.375,302.0625,20.75,149.0,94884.0,9220.5,7793.32520661157,37.35,-1115.0,-1115.0,-1100.0,-793.0,-402.0,-861.0,-86.9375,-263.1875,-150.25,88.4375,-52.9375,63.5,94868.0,FrontEntrance,TIESHOES
9377.183333333332,7794.395329326321,71.28181818181817,-23.333333333333332,-813.030303030303,-525.2121212121212,-3.696969696969697,-73.06060606060606,-23.818181818181817,3.5056818181818183,14.950757575757576,-3.0416666666666665,236.4469696969697,-2.0681818181818183,123.07386363636364,94874.62121212122,9367.05,7813.254545454545,46.35,143.0,-809.0,-474.0,-52.0,-81.0,17.0,1.25,-10.9375,-0.0625,257.375,8.0625,124.6875,94870.75,39.14752280370581,45.96225813241127,86.65389022046794,485.43193824332025,192.0654974299921,343.841420350261,313.8379841622589,192.69761600009795,356.8865763924035,64.30710991526061,161.74431391967275,53.52332897710742,57.14476314916401,22.431658164236524,6.78061011067672,6.743666360730525,9350.0,7800.0,200.0,-1085.0,-810.0,-1333.0,262.0,-43.0,-861.0,-161.5625,-337.0625,-143.5,117.375,10.3125,126.0,94879.5,9467.4,7858.75,192.75,1116.0,-393.0,177.0,940.0,355.0,570.0,161.125,413.5625,117.75,302.0625,20.75,131.8125,94889.75,9319.3,7715.7863636363645,-48.95,-1085.0,-1263.0,-1333.0,-793.0,-454.0,-861.0,-161.5625,-337.0625,-143.5,117.375,-46.75,104.3125,94867.25,FrontEntrance,TIESHOES
9328.233333333332,7802.7652848924245,443.73636363636365,-336.6666666666667,-849.6969696969697,-205.72727272727272,-28.606060606060606,15.212121212121213,-71.9090909090909,-5.2102272727272725,-2.7007575757575757,-5.6477272727272725,121.03219696969697,-16.448863636363637,99.75757575757575,94878.35606060606,9349.35,7815.744552036313,463.85,-215.0,-882.0,-286.0,34.0,-18.0,-78.0,0.25,-13.375,-5.375,123.25,-16.375,100.4375,94875.0,82.05652935883073,48.08513243453836,77.5473416621333,370.8832082565436,259.56411597720955,397.8300730782611,380.9666930482522,234.57365015807903,393.3840651669469,33.31467225189857,132.74467363444154,40.66126631891425,17.52609745758602,5.122366285578996,10.17106800725194,7.172547028163155,9250.0,7800.0,500.0,-77.0,-921.0,-316.0,79.0,-75.0,-835.0,-75.375,-279.8125,-114.875,86.0,-16.5,100.25,94877.25,9480.4,7890.305925069183,528.05,132.0,-284.0,1504.0,538.0,507.0,1678.0,40.875,416.0,69.25,152.6875,-7.875,113.5625,94893.0,9222.7,7719.138879609565,277.8,-1517.0,-1297.0,-1024.0,-1301.0,-511.0,-835.0,-75.375,-279.8125,-114.875,86.0,-26.125,76.875,94872.75,FrontEntrance,TIESHOES
9340.27272727273,7885.954145763038,382.82630853994493,-300.45454545454544,-874.7272727272727,-237.75757575757575,-9.393939393939394,-31.333333333333332,19.151515151515152,-0.020833333333333332,5.954545454545454,0.884469696969697,127.00189393939394,-16.388257575757574,107.40151515151516,94880.43181818182,9307.5,7890.305925069183,475.7,-234.0,-897.0,-298.0,26.0,-68.0,-38.0,-3.125,-15.5,-4.125,127.75,-16.5,108.25,94878.25,100.14539593363509,95.55924144930442,160.6229976511106,369.51345466953995,303.78706283424015,356.63733595059756,378.4127161078512,299.2410887005103,360.42189871837365,32.78079817769339,95.66133050754853,36.468984713027766,15.40995363736008,2.3292131253159165,4.4788737571599135,6.125724678836709,9250.0,8000.0,500.0,-1517.0,-1519.0,-815.0,-1301.0,-634.0,-673.0,-50.375,-182.6875,-75.375,97.875,-18.3125,105.3125,94877.25,9484.75,7991.713410969196,528.05,454.0,-284.0,1504.0,757.0,576.0,1678.0,104.8125,276.75,83.3125,155.875,-10.4375,113.5625,94893.0,9222.7,7720.509165036648,45.92272727272727,-1517.0,-1519.0,-815.0,-1301.0,-634.0,-673.0,-50.375,-182.6875,-75.375,97.875,-21.0625,97.4375,94875.0,FrontEntrance,TIESHOES
9432.0984375,7965.850025718836,133.33494318181818,-286.84375,-953.125,-213.28125,17.53125,-58.125,-18.75,2.478515625,-21.33984375,1.0,105.21484375,-18.712890625,102.86328125,94878.8984375,9451.05,7966.92865234191,45.872727272727275,-282.5,-944.5,-212.0,23.0,-31.0,-58.5,-4.125,-23.21875,4.375,105.4375,-19.0625,105.3125,94879.0,60.479705319589236,23.5528034119735,153.28012630046015,313.98295714740993,227.85518179529677,202.95498219651347,323.09541029427487,240.95291334950258,182.99409473990525,28.805362235036785,115.88848676765686,39.57263508512726,31.21270329773148,3.977154372028012,7.2754772994268775,0.9307891531279493,9450.0,7950.0,50.0,-1003.0,-1519.0,-222.0,-700.0,-17.0,-110.0,-43.4375,-246.9375,-78.8125,59.375,-23.1875,89.8125,94879.0,9535.6,8011.617324262856,475.7,454.0,-293.0,105.0,757.0,576.0,382.0,104.8125,276.75,83.3125,155.875,-10.75,113.4375,94880.0,9294.45,7914.619390378559,-32.527272727272724,-1003.0,-1519.0,-682.0,-700.0,-634.0,-376.0,-43.4375,-246.9375,-78.8125,59.375,-23.6875,89.5,94877.25,FrontEntrance,TIESHOES
9471.99375,7982.602100993463,38.80838068181818,-426.53125,-874.65625,-301.5,-98.1875,8.8125,-148.34375,2.873046875,-5.376953125,2.814453125,93.927734375,-21.353515625,101.4296875,94883.078125,9474.725,7983.698015472472,40.40909090909091,-306.0,-919.0,-183.5,2.0,-11.5,-84.5,-5.125,-10.90625,4.375,88.1875,-22.75,101.71875,94880.0,62.15563809321076,38.66671739177501,30.69814239591842,554.8714459877897,282.42413875804914,419.0633950039756,537.0903953171528,252.32856684323573,396.7028309562583,38.71504499240393,166.6573823320767,61.45775021579005,24.846195783318095,5.133564082119932,7.074056524063486,5.95359660205493,9450.0,7950.0,50.0,-966.0,-1343.0,-2018.0,-447.0,-17.0,-1895.0,-73.1875,-429.4375,9.375,59.375,-23.1875,89.8125,94879.0,9588.15,8046.936363636363,87.4090909090909,889.0,76.0,105.0,1319.0,884.0,263.0,106.75,319.625,171.4375,147.8125,-10.75,116.8125,94894.75,9367.65,7914.619390378559,-32.527272727272724,-2552.0,-1343.0,-2018.0,-2159.0,-497.0,-1895.0,-73.1875,-429.4375,-142.375,59.375,-34.625,89.5,94879.0,FrontEntrance,TIESHOES
9538.29696969697,8022.340186970727,63.32823691460055,-349.09090909090907,-830.969696969697,-328.3636363636364,-62.39393939393939,13.06060606060606,-161.3939393939394,6.121212121212121,22.206439393939394,-1.4583333333333333,98.74431818181819,-22.314393939393938,103.9659090909091,94883.64393939394,9548.25,8025.636363636363,64.70909090909092,-371.0,-866.0,-294.0,25.0,-8.0,-131.0,-4.1875,14.375,2.8125,98.625,-24.0,104.625,94883.75,51.85947800817418,29.60940680762398,14.939998786363368,704.6297504557076,290.2677088534485,451.2662613539412,581.6460446114296,258.37544622529674,414.0000709083529,42.6499821957448,258.3123929560859,67.60100889036192,28.908253155408044,5.479041317770575,8.256775314906678,6.278071429285599,9550.0,8050.0,50.0,-966.0,-1343.0,-96.0,-447.0,-497.0,-210.0,-73.1875,-729.1875,-142.375,98.375,-24.4375,90.1875,94885.75,9612.95,8067.286363636364,87.4090909090909,1908.0,76.0,448.0,1319.0,884.0,263.0,106.75,518.4375,171.4375,172.625,-7.9375,117.1875,94894.75,9431.55,7946.641123866709,30.331818181818182,-2552.0,-1343.0,-2018.0,-2159.0,-497.0,-1895.0,-73.1875,-729.1875,-142.375,59.5,-34.625,90.1875,94877.0,FrontEntrance,TIESHOES
9550.530303030304,8077.974294685122,36.031680440771346,-200.24242424242425,-872.0909090909091,-275.8181818181818,52.484848484848484,-9.151515151515152,-68.36363636363636,-0.2746212121212121,-0.5568181818181818,-2.8541666666666665,102.71022727272727,-19.327651515151516,104.93371212121212,94879.53787878787,9560.15,8045.885950413224,31.577272727272724,-284.0,-885.0,-295.0,25.0,-12.0,-60.0,-4.9375,-16.8125,-6.25,102.875,-19.625,107.1875,94877.75,53.269236459989735,78.35483178716213,32.38518374016674,495.81139498194204,166.22563047638812,356.8205479076155,335.2822617970679,156.36758000224208,303.25791603248155,31.271628996991403,242.61391914037705,47.5477829837172,27.685409319794164,5.275260802920151,7.898278148026852,4.404419483297258,9600.0,8050.0,0.0,-406.0,-898.0,-27.0,72.0,-514.0,-210.0,-5.375,-729.1875,-131.125,59.5,-24.4375,109.875,94885.75,9616.7,8321.917239259614,85.35,1908.0,-542.0,488.0,668.0,277.0,766.0,66.25,518.4375,92.625,172.625,-7.9375,117.1875,94885.75,9419.25,8015.836363636363,-10.222727272727273,-944.0,-1301.0,-1001.0,-801.0,-514.0,-637.0,-52.0625,-729.1875,-131.125,59.5,-27.5625,90.1875,94873.25,FrontEntrance,TIESHOES
9460.75303030303,8285.657871839503,39.111570247933884,-217.06060606060606,-878.5454545454545,-330.5151515151515,36.09090909090909,3.242424242424242,-36.60606060606061,-0.4564393939393939,20.636363636363637,4.946969696969697,117.78030303030303,-15.5625,108.45454545454545,94881.4696969697,9441.85,8327.767239259614,19.827272727272728,-147.0,-885.0,-330.0,68.0,0.0,-19.0,-2.875,40.25,4.875,116.25,-16.875,109.0625,94882.0,87.55706437392864,181.76067186983695,43.357840820947054,299.6640764458116,127.64968931344166,304.3125573744166,280.09500214618737,135.8116872509115,298.24643118086294,25.674872793854053,171.92689305715237,30.446318350125324,26.891887504918245,5.353084865582181,5.57493502815789,5.247304954002867,9400.0,8500.0,0.0,-532.0,-898.0,-541.0,-775.0,-514.0,-637.0,-5.375,-373.3125,-73.375,66.875,-19.625,93.125,94882.0,9616.7,8517.374908043113,113.5,237.0,-601.0,488.0,574.0,277.0,766.0,59.75,305.8125,92.625,170.0625,-5.8125,116.75,94890.0,9315.95,8018.835950413224,-10.222727272727273,-1138.0,-1301.0,-978.0,-775.0,-514.0,-637.0,-52.0625,-373.3125,-73.375,66.875,-24.75,93.125,94873.25,FrontEntrance,TIESHOES
9360.157575757576,8396.14875251356,63.51060606060606,-120.24242424242425,-914.0,-298.4848484848485,27.03030303030303,-11.93939393939394,-7.121212121212121,8.621212121212121,-5.755681818181818,-7.509469696969697,131.9280303030303,-9.458333333333334,107.85227272727273,94883.39393939394,9365.45,8379.260579567963,81.85,-107.0,-889.0,-334.0,51.0,-2.0,-8.0,4.25,4.1875,4.4375,137.75,-8.6875,108.0625,94884.75,56.844584066465,83.55880743348293,45.12819371935035,306.11721920522433,158.12495059287767,239.63658960133273,288.31270836199764,156.00619767214766,259.89526226633075,28.599183821950643,159.43022891381918,45.16444324786566,27.178703323713368,8.986435452136552,6.184161389806257,5.4425372870759565,9350.0,8350.0,100.0,-532.0,-1374.0,-354.0,-775.0,-381.0,188.0,-52.5,-373.3125,-193.375,66.875,-24.75,105.25,94882.0,9451.7,8517.374908043113,113.75,567.0,-616.0,61.0,630.0,357.0,444.0,76.375,305.8125,50.1875,170.0625,8.25,116.75,94890.0,9254.15,8248.41652892562,-23.9,-1138.0,-1374.0,-644.0,-775.0,-381.0,-456.0,-52.5,-373.3125,-193.375,66.875,-24.75,93.125,94871.5,FrontEntrance,TIESHOES
9289.3125,8289.353459506507,63.615624999999994,-97.0,-926.125,-226.0,88.28125,-3.875,-0.71875,10.9921875,-38.11328125,-6.89453125,128.919921875,-9.14453125,101.2421875,94877.6015625,9272.35,8280.990536422421,64.57499999999999,-61.5,-905.5,-170.5,126.0,-7.0,23.5,9.1875,-37.40625,8.40625,128.9375,-9.3125,101.1875,94876.0,55.713965643651186,88.54202430798742,68.18347453449974,285.73402927175295,189.20014151259798,237.48901502609445,307.3645764607614,191.9470273026456,261.89042702269404,29.46106023313628,98.49235150924954,61.76014804440428,16.468370178142848,9.364946726625854,7.388958735134209,6.687693131067138,9250.0,8250.0,0.0,-262.0,-1374.0,-659.0,248.0,-381.0,188.0,-52.5,-267.5625,-193.375,130.0625,-26.4375,99.1875,94871.5,9407.85,8468.421226600589,242.05,567.0,-616.0,348.0,796.0,357.0,444.0,76.375,178.0,80.3125,162.375,8.25,115.625,94886.75,9206.75,8103.234710743801,-23.9,-876.0,-1374.0,-659.0,-632.0,-381.0,-456.0,-52.5,-267.5625,-193.375,100.0625,-26.4375,84.1875,94868.75,FrontEntrance,TIESHOES
9307.2734375,8095.392949380165,174.45937500000002,-82.53125,-893.96875,-189.4375,14.75,-26.96875,49.78125,-8.822265625,25.869140625,4.94921875,144.3203125,-4.673828125,99.44140625,94874.765625,9286.15,8089.0923553719,229.95,-22.0,-903.5,-222.5,38.5,-26.0,23.5,3.3125,5.84375,11.875,130.125,-5.125,98.8125,94873.5,76.13094829175863,149.5762921453063,120.98026794421824,291.433828529377,324.22696992106245,379.3033459196036,382.770966640922,189.85792385360165,416.00222815586596,39.37867401373989,116.88337079667964,54.53294967426952,36.55769974692459,12.584469979745629,8.631570917686794,5.740678805259992,9250.0,7900.0,300.0,-257.0,-1338.0,-973.0,248.0,-363.0,-650.0,-92.1875,-157.125,-119.9375,100.0625,-26.4375,99.1875,94871.5,9442.25,8319.01652892562,316.9,371.0,380.0,664.0,796.0,356.0,1028.0,44.125,349.6875,101.125,206.75,15.3125,113.875,94885.5,9206.75,7880.55,-21.9,-876.0,-1338.0,-973.0,-990.0,-363.0,-650.0,-92.1875,-157.125,-119.9375,100.0625,-26.4375,84.1875,94868.75,FrontEntrance,TIESHOES
9208.859375,8108.921823347107,275.428125,49.75,-973.875,-187.0,46.78125,-47.96875,60.375,-6.794921875,16.59765625,4.939453125,168.0234375,1.26171875,100.302734375,94877.28125,9214.5,8077.622933884297,282.15,27.5,-1015.0,-229.5,64.0,-48.0,-9.0,-2.0625,-14.0625,7.4375,172.53125,0.59375,97.375,94875.75,169.44123562058044,172.1251970483672,30.853629308920176,265.41835510342247,367.72243652322965,357.96080160245333,478.22209271391614,222.81635492977966,407.85368581423666,42.07916716222269,119.36262279346951,38.50136637570307,25.9853292492036,7.055358534290021,7.603985276182033,5.923146913156781,9400.0,7900.0,300.0,-22.0,-1694.0,-973.0,145.0,-16.0,-172.0,-92.1875,-179.375,-78.0,140.6875,-6.375,97.375,94882.25,9442.25,8376.368595041324,334.2,820.0,380.0,664.0,1855.0,313.0,1028.0,80.125,349.6875,101.125,206.75,15.3125,113.875,94885.5,8971.2,7880.55,220.7,-645.0,-1694.0,-973.0,-990.0,-425.0,-650.0,-92.1875,-179.375,-78.0,111.1875,-11.8125,88.25,94868.75,FrontEntrance,TIESHOES
9010.5234375,8301.667733377162,240.23593749999998,-197.375,-917.84375,-254.5,65.0,6.96875,-46.25,-1.6015625,-21.033203125,12.48828125,165.322265625,-14.154296875,101.560546875,94878.2265625,8981.650000000001,8345.639049586778,258.45000000000005,-184.0,-881.5,-214.0,-3.5,74.0,-58.5,2.0,-30.5,16.03125,165.0,-13.28125,98.5625,94876.25,73.97578285555848,96.22625099490999,64.7717957267929,422.44264737663576,400.1162822411956,217.22502083650343,457.26677467951515,362.22488865299886,249.77822421164456,53.271599790639215,134.8535411719943,40.02671561694311,20.935698101176826,13.354115670325816,6.60872705443264,4.503743682455526,8950.0,8400.0,300.0,-1047.0,-1694.0,-781.0,-688.0,-311.0,-172.0,-125.375,-259.625,-74.3125,140.6875,-34.875,96.25,94882.25,9202.8,8406.46570247934,334.2,820.0,-40.0,153.0,1855.0,713.0,640.0,87.5625,318.25,133.625,205.9375,2.5625,116.5,94884.5,8933.3,8080.295867768595,84.3,-1047.0,-1694.0,-781.0,-688.0,-726.0,-650.0,-125.375,-259.625,-74.3125,133.875,-34.875,94.9375,94872.5,FrontEntrance,TIESHOES
9012.30303030303,8189.695256189316,173.56060606060606,-366.8787878787879,-819.6969696969697,-198.0,59.333333333333336,18.78787878787879,-65.39393939393939,-11.077651515151516,-18.39962121212121,2.524621212121212,148.65151515151516,-25.71969696969697,98.33712121212122,94882.28787878787,8991.55,8201.310518407212,152.9,-351.0,-847.0,-200.0,-45.0,33.0,27.0,-1.125,1.0,14.4375,144.8125,-27.3125,99.125,94884.5,60.09982183235075,174.28785981606455,66.55260930926158,424.59353780820175,349.5559222828735,386.7116173584652,428.3524152688609,339.25255687833044,300.4216765017485,52.37857990054905,222.9574815058296,53.11397849687122,28.40589774904942,6.346945800859893,12.364341402945751,5.40909289852268,8950.0,8400.0,150.0,-1176.0,-1603.0,-796.0,-688.0,529.0,-650.0,37.125,-534.75,-116.0625,109.4375,-30.6875,95.8125,94876.25,9130.4,8406.46570247934,290.35,544.0,-40.0,794.0,1045.0,713.0,668.0,87.5625,470.0,133.625,205.9375,-14.75,116.5,94888.5,8933.3,7952.449035088264,69.05,-1176.0,-1603.0,-796.0,-688.0,-726.0,-650.0,-125.375,-534.75,-116.0625,109.4375,-34.875,76.8125,94872.5,FrontEntrance,TIESHOES
9068.925757575758,8023.396096897971,176.50757575757575,-222.87878787878788,-867.6969696969697,-70.6969696969697,176.57575757575756,16.181818181818183,-64.18181818181819,0.2178030303030303,-5.212121212121212,-1.5,138.44507575757575,-23.140151515151516,91.97916666666667,94884.64393939394,9086.5,7996.746410764291,184.9,-225.0,-868.0,66.0,138.0,-15.0,31.0,-0.8125,11.9375,10.5625,141.0625,-23.125,90.5,94886.5,50.41098764346307,73.58973811901191,50.55444948458438,489.6065229840028,236.62423862113175,442.6584098410763,595.527971126411,216.36737487220876,397.7311006309299,42.387892469787914,293.0095671313756,58.60472605529033,26.489503363986344,5.345006940601271,11.841829357242133,5.1463087131663725,9100.0,8000.0,200.0,-351.0,-1364.0,218.0,138.0,64.0,-1664.0,37.125,-773.6875,-149.0625,106.75,-17.4375,75.9375,94889.75,9141.1,8214.060518407212,256.0,1255.0,-263.0,794.0,2564.0,739.0,668.0,142.625,609.5,95.8125,210.3125,-9.0625,115.5625,94889.75,8982.9,7952.449035088264,69.05,-1183.0,-1364.0,-1325.0,-885.0,-421.0,-1664.0,-96.25,-773.6875,-149.0625,106.75,-32.25,75.9375,94875.25,FrontEntrance,TIESHOES
8991.021875,8129.875919807622,215.6046875,-248.0,-921.4375,-154.34375,88.84375,-9.09375,-112.9375,3.2265625,22.513671875,5.84765625,147.4453125,-20.423828125,96.107421875,94881.2265625,8977.3,8075.818648751016,203.075,-306.5,-903.5,-117.0,43.5,-12.0,-72.0,-0.8125,38.21875,11.53125,145.78125,-20.71875,97.25,94882.0,100.69407592010177,147.15029686287954,27.940026090963297,438.81534069105476,244.6242592749265,358.0217698710693,616.5956017429169,224.65706616759743,364.3570508222271,42.33774694085912,298.90282471494703,50.206855217807615,26.552034228536748,4.813134498783201,9.651477437551753,6.107689288722916,8900.0,8000.0,200.0,-1183.0,-1492.0,218.0,-565.0,-76.0,-1664.0,-62.25,-773.6875,-149.0625,106.75,-25.6875,75.9375,94889.75,9141.1,8391.330578512398,267.3,1255.0,-263.0,341.0,2564.0,739.0,388.0,142.625,609.5,95.8125,210.3125,-9.0625,115.5625,94889.75,8856.65,7959.231491887664,176.4,-1183.0,-1492.0,-1325.0,-885.0,-588.0,-1664.0,-62.25,-773.6875,-149.0625,106.75,-28.125,75.9375,94873.5,FrontEntrance,TIESHOES
8940.415625000001,8301.969264181065,236.70468749999998,-245.875,-947.09375,-219.75,23.6875,-44.09375,-26.90625,5.57421875,17.75,-1.623046875,165.439453125,-18.1171875,103.47265625,94879.859375,8939.5,8344.679639368896,239.39999999999998,-224.0,-921.0,-225.5,16.5,-12.0,-12.0,5.15625,13.40625,4.65625,173.28125,-18.34375,102.6875,94882.5,53.59485025438835,89.26903117950214,29.758193123301513,283.2066098645435,184.03021480093267,228.75934671544553,364.17174586157967,163.817829463096,227.78503722914698,27.251264386451545,216.62393201903407,28.52204281789431,26.72883868848081,4.960218507397535,6.694024506057743,7.0978010849794515,8900.0,8350.0,250.0,-1159.0,-1492.0,-710.0,-565.0,-76.0,-648.0,19.875,-510.9375,15.125,107.3125,-25.6875,102.3125,94869.5,9048.8,8391.330578512398,278.0,256.0,-676.0,198.0,858.0,177.0,334.0,71.8125,404.0625,61.3125,207.0,-9.875,114.5,94889.25,8856.65,8083.49233658903,189.2,-1159.0,-1492.0,-710.0,-725.0,-588.0,-648.0,-61.0625,-510.9375,-70.5,107.3125,-25.6875,85.5,94869.5,FrontEntrance,TIESHOES
9044.084374999999,8132.928409090909,287.8046875,-275.34375,-941.65625,-146.75,53.75,-50.875,22.21875,-3.60546875,18.583984375,5.0546875,132.40234375,-19.552734375,101.83984375,94880.40625,9030.7,8124.375413223141,290.15,-265.0,-920.0,-176.0,43.5,-25.0,-66.5,-13.375,-12.46875,-3.78125,135.78125,-19.625,101.0,94876.75,59.35348650995254,64.79806400294277,20.03319970004228,215.22930148504858,212.66839390499246,345.7922180508349,250.42467156618625,215.51270451287,340.41859757154964,62.169147351676585,179.31936560615787,64.74795221494055,17.367832832956104,4.938383173743784,5.571563780364482,7.468954562592044,9000.0,8100.0,300.0,0.0,-1457.0,-176.0,-419.0,-545.0,-818.0,-97.5,-242.9375,-153.1875,139.0625,-23.25,95.0,94872.75,9143.85,8266.277573253192,327.15,240.0,-542.0,967.0,685.0,330.0,1134.0,188.875,474.0,188.3125,177.625,-6.375,116.125,94890.75,8950.6,8034.90041322314,249.3,-842.0,-1457.0,-880.0,-419.0,-545.0,-818.0,-97.5,-242.9375,-153.1875,100.25,-31.1875,94.75,94872.75,FrontEntrance,TIESHOES
9105.279687499999,8227.047099433952,231.3265625,-215.34375,-956.09375,-194.625,94.59375,-69.5,13.34375,-3.1171875,-6.783203125,1.896484375,123.185546875,-18.216796875,104.302734375,94884.4140625,9105.625,8228.924135987978,248.55,-277.5,-938.0,-150.0,23.5,-43.0,55.0,-11.5625,-36.65625,8.78125,112.4375,-20.5,102.21875,94885.25,33.67706422385878,59.82207236884862,60.234979367601035,308.36777470385334,133.2158954418995,325.27385484413173,314.7227002047891,140.5296432969261,322.1603096611495,58.05248196935614,194.43065079830538,68.29778991447206,28.41263972003719,8.171331677568144,4.087904727884948,5.411907933422252,9100.0,8300.0,250.0,-407.0,-1266.0,-987.0,-419.0,0.0,-818.0,-89.3125,-397.1875,-153.1875,110.9375,-23.25,100.375,94879.0,9180.7,8304.276357489241,314.45,614.0,-542.0,384.0,831.0,276.0,472.0,188.875,474.0,188.3125,196.375,5.625,116.125,94890.75,9029.9,8080.445492111195,86.05,-842.0,-1266.0,-987.0,-419.0,-451.0,-818.0,-89.3125,-397.1875,-153.1875,97.0,-31.1875,100.0,94872.75,FrontEntrance,TIESHOES
9159.027272727273,8215.919665923631,170.27575757575758,-170.84848484848484,-912.4545454545455,-202.87878787878788,51.96969696969697,16.181818181818183,-32.21212121212121,0.032196969696969696,-15.066287878787879,-3.0511363636363638,127.88825757575758,-13.5625,100.73484848484848,94881.42424242424,9160.6,8215.763636363636,181.3,-200.0,-930.0,-168.0,-26.0,0.0,-52.0,0.8125,-5.1875,-7.75,130.4375,-13.875,101.1875,94885.0,50.63025758333221,65.85093946006307,53.12069117998554,245.6315993022021,125.01627166820397,207.76184646966544,239.34382758498347,135.28198663935603,220.64957477521875,26.7508995231175,117.44159321652123,39.132273480720315,25.219770142663254,6.2771675165834155,4.028555007080796,6.929185571868741,9100.0,8200.0,200.0,-158.0,-1185.0,-198.0,-146.0,-89.0,-86.0,-65.0625,-397.1875,-137.0625,134.125,-12.5,100.375,94885.0,9245.85,8304.276357489241,265.25,614.0,-557.0,198.0,831.0,383.0,431.0,49.9375,239.125,96.3125,196.375,5.625,107.75,94890.75,9091.8,8092.264876033058,64.95,-517.0,-1185.0,-987.0,-312.0,-281.0,-814.0,-65.0625,-397.1875,-137.0625,97.0,-21.375,94.125,94871.5,FrontEntrance,TIESHOES
9227.627272727272,8139.855245025902,246.56969696969693,-149.1818181818182,-922.6060606060606,-152.3030303030303,-19.606060606060606,14.878787878787879,-32.27272727272727,12.145833333333334,9.996212121212121,-3.037878787878788,144.20075757575756,-8.534090909090908,97.76515151515152,94879.13636363637,9227.1,8131.151239669422,265.25,-175.0,-961.0,-168.0,-38.0,-3.0,-59.0,11.3125,1.4375,-7.6875,147.8125,-7.8125,97.625,94878.0,43.44777233017295,51.67720037093467,102.41448409785748,200.43319562660002,161.2432051657409,159.42797841981908,142.33453977204974,182.90891817646522,150.68723252304605,29.092997551136193,60.37919106545916,19.96454951048792,11.829587896404883,4.778851801254384,6.136747947158231,6.831421803961191,9200.0,8100.0,350.0,-383.0,-1241.0,-198.0,-108.0,-89.0,-86.0,-37.4375,-81.8125,-30.5625,157.25,-12.5,85.6875,94880.5,9289.7,8224.80749948774,367.55,694.0,-512.0,555.0,478.0,464.0,241.0,110.1875,166.3125,46.0625,157.9375,-1.625,107.75,94890.75,9156.2,8038.5,64.95,-456.0,-1241.0,-488.0,-285.0,-341.0,-494.0,-37.4375,-81.8125,-30.5625,126.8125,-15.3125,85.6875,94871.5,FrontEntrance,TIESHOES
9267.1875,8062.234659090909,345.8359375,-125.71875,-1008.03125,-16.75,-23.84375,-88.9375,-3.90625,-0.17578125,-7.095703125,2.12109375,144.345703125,-7.806640625,92.521484375,94876.3984375,9275.05,8061.361363636364,346.35,-180.5,-1028.0,-78.0,-46.5,-73.5,-14.5,-6.65625,-14.03125,-3.125,150.59375,-6.75,91.375,94878.0,26.485047516202048,68.8233061474738,18.44470041194192,278.3898675361124,234.83576750915287,303.98493171484245,199.71513735495785,239.62510201589697,310.7840614685754,43.181503532807085,63.81178020109779,31.927403703290107,13.359766577217277,5.224577448933959,8.761752035615876,3.6856628146189006,9300.0,8050.0,350.0,-203.0,-1600.0,-280.0,-108.0,-639.0,-641.0,-16.0625,-125.8125,-45.0,150.9375,-9.25,78.5625,94880.5,9299.55,8176.801239669422,375.95,694.0,-512.0,1081.0,567.0,464.0,1092.0,110.1875,136.375,89.1875,157.9375,-1.625,105.9375,94880.5,9200.55,7954.022727272726,286.5,-834.0,-1600.0,-488.0,-376.0,-639.0,-641.0,-99.25,-125.8125,-45.0,120.0625,-19.75,78.5625,94871.5,FrontEntrance,TIESHOES
8857.418181818182,8264.8060287321,5.487878787878788,-154.96969696969697,-929.4545454545455,179.96969696969697,42.27272727272727,12.969696969696969,-59.57575757575758,-7.445075757575758,18.454545454545453,-14.926136363636363,167.0435606060606,-13.484848484848484,78.12689393939394,94882.84090909091,8827.25,8277.613636363636,-5.0,-226.0,-950.0,208.0,89.0,5.0,-12.0,4.125,-25.375,-18.875,173.5,-9.4375,77.8125,94886.25,82.83594745242515,56.2973925919436,64.13154453726223,577.7217910058702,283.26810300811877,513.6035974397281,631.3043180950488,302.24694837670455,582.5573485880506,44.85282670982141,139.68373375858786,37.52106652586833,19.87255220805413,10.99429484400663,7.975219262030488,6.47405222968793,8800.0,8300.0,-50.0,-1166.0,-1728.0,176.0,-2227.0,5.0,-1385.0,7.375,-142.5,-13.125,117.25,-32.1875,77.8125,94871.75,8978.35,8364.74090909091,133.95,2157.0,-224.0,1371.0,2261.0,1246.0,1242.0,76.375,368.125,66.0,188.9375,2.4375,93.6875,94889.25,8756.4,8164.6277986476325,-71.85,-1166.0,-1728.0,-1276.0,-2227.0,-676.0,-1385.0,-148.8125,-142.5,-104.5625,117.25,-32.1875,61.25,94871.75,FrontEntrance,TIESHOES
8774.277272727271,8294.910495640099,18.837878787878786,-81.9090909090909,-853.1515151515151,55.06060606060606,9.0,113.51515151515152,-45.515151515151516,-4.401515151515151,1.2556818181818181,4.428030303030303,187.0284090909091,-6.871212121212121,88.80681818181819,94885.12878787878,8784.6,8291.19917355372,18.35,-126.0,-961.0,116.0,84.0,5.0,-1.0,1.5625,6.75,-4.875,185.5625,-4.9375,92.25,94887.75,57.13060296771394,27.3405052235359,72.25907710097638,650.9222958443448,576.5857547457772,556.0293910506181,711.7009115492266,519.784517926186,613.4746389018519,43.00697172288699,103.65324974417545,32.84489145707713,12.222816328141286,6.102416501413476,11.101596736800255,3.9221532332187743,8800.0,8300.0,-50.0,-1995.0,-1728.0,310.0,-2227.0,5.0,-1385.0,-148.8125,-240.0625,-14.5625,175.375,-4.625,77.8125,94889.25,8844.15,8364.74090909091,128.9,2157.0,1559.0,1371.0,2261.0,2139.0,1242.0,67.4375,261.0,88.25,213.125,2.4375,101.4375,94889.25,8640.8,8254.799173553718,-107.6,-1995.0,-1728.0,-1276.0,-2227.0,-676.0,-1385.0,-148.8125,-240.0625,-43.5625,170.8125,-24.125,71.3125,94880.25,FrontEntrance,TIESHOES
8765.371212121212,8256.36899574255,17.13030303030303,-400.8181818181818,-744.3636363636364,-53.63636363636363,-47.54545454545455,92.6969696969697,-69.33333333333333,6.515151515151516,4.320075757575758,17.723484848484848,177.67424242424244,-23.265151515151516,91.64015151515152,94879.73484848485,8777.65,8273.6,10.55,-292.0,-867.0,-84.0,-2.0,-11.0,-107.0,1.5625,9.4375,13.25,175.5,-23.0625,97.0625,94880.25,86.19415858099005,68.16097926357283,96.79293373888562,476.3848532532189,551.9789861365771,334.648212510337,384.50398981261327,470.4035823662808,326.6348942882047,46.623156879368445,123.83949056434409,36.213525663651566,20.9617557586732,17.910776248831336,12.042791038291362,7.27982534183175,8800.0,8300.0,-100.0,-1995.0,-1351.0,-659.0,123.0,-401.0,-644.0,-94.8125,-240.0625,-14.5625,146.8125,-57.3125,69.9375,94882.75,8962.35,8331.15,229.0,464.0,1559.0,658.0,402.0,2139.0,814.0,96.0,399.875,91.0,213.125,-2.5625,109.6875,94889.25,8640.8,8071.236363636364,-111.2,-1995.0,-1351.0,-659.0,-1763.0,-401.0,-644.0,-94.8125,-240.0625,-63.1875,146.8125,-57.3125,69.9375,94868.25,FrontEntrance,TIESHOES
8929.069696969696,8085.1368645129,172.76363636363638,-505.24242424242425,-754.3030303030303,76.18181818181819,16.78787878787879,-43.72727272727273,-106.15151515151516,1.4090909090909092,-5.013257575757576,-0.2878787878787879,154.1401515151515,-38.19886363636363,81.53598484848484,94876.73484848485,8979.3,8077.544214876034,273.85,-458.0,-758.0,74.0,69.0,-62.0,-94.0,4.625,-33.375,16.0,156.125,-41.25,76.0625,94875.5,173.7200756332735,169.96203107041615,181.2063233033374,392.13550195556047,321.82812618388454,513.7039793588239,314.82155238878556,273.29474390381995,402.02503973727505,55.81254175466727,261.65058382695474,64.76738903544918,14.907953505116012,13.989336188276996,18.092859638492772,6.030825566004688,9050.0,7850.0,350.0,-1143.0,-1339.0,-1426.0,-656.0,-81.0,-1521.0,-121.6875,-595.5,-193.375,126.375,-57.3125,52.1875,94875.5,9141.25,8331.15,362.45,462.0,-18.0,1103.0,805.0,529.0,500.0,96.0,493.375,91.0,179.8125,-15.0625,113.1875,94887.5,8658.4,7845.157851239669,-111.2,-1143.0,-1339.0,-1426.0,-656.0,-501.0,-1521.0,-121.6875,-595.5,-193.375,126.375,-57.3125,52.1875,94868.25,FrontEntrance,TIESHOES
9054.155882352941,7920.707693242588,276.00735294117646,-527.6764705882352,-754.8823529411765,95.0,-0.7647058823529411,-36.44117647058823,-90.94117647058823,-4.204044117647059,-3.4025735294117645,-5.0974264705882355,154.75551470588235,-37.27205882352941,80.4283088235294,94879.38235294117,9047.05,7891.42438016529,273.85,-481.5,-758.5,125.0,25.0,-23.5,-103.5,-1.65625,27.625,8.15625,154.0,-38.03125,80.59375,94880.5,43.10673462940541,71.39562685170259,59.249141577150574,394.28951988379816,251.8386646495683,533.8057755968982,338.9568720955809,231.38701558296688,413.4769013501106,47.41310160486708,279.1363558530059,66.14480855417659,15.271798625236556,11.435464945142652,16.993266354921698,5.602094878094524,9050.0,7900.0,200.0,-1237.0,-1339.0,354.0,-656.0,0.0,-275.0,-121.6875,-595.5,-193.375,126.375,-56.5625,52.1875,94875.5,9141.25,8093.386363636365,362.45,462.0,-216.0,1103.0,805.0,483.0,500.0,83.625,493.375,123.375,179.8125,-15.0625,113.1875,94888.75,8979.3,7845.157851239669,199.25,-1237.0,-1339.0,-1426.0,-656.0,-501.0,-1521.0,-121.6875,-595.5,-193.375,126.375,-56.5625,52.1875,94868.25,FrontEntrance,TIESHOES
9073.179411764706,7875.614827418572,243.37647058823532,-585.9117647058823,-743.3823529411765,1.1176470588235294,-8.735294117647058,14.029411764705882,-73.41176470588235,-0.45036764705882354,20.99448529411765,5.303308823529412,160.28308823529412,-36.130514705882355,85.96507352941177,94882.30147058824,9067.1,7878.436363636363,242.5,-593.0,-746.0,3.0,7.0,0.0,-123.0,3.5,64.03125,5.96875,160.0,-37.84375,85.5,94881.5,46.763259532112684,29.18511232365358,30.595311175957242,286.89691609262394,147.01700885021975,382.45853526140047,272.7804432721104,131.55307381413223,277.1305476908998,32.26352187239855,192.883280969523,40.96322240798052,15.20122474455275,6.078954311598703,15.56677173921405,5.953347483280687,9100.0,7900.0,250.0,-602.0,-584.0,354.0,-639.0,0.0,-275.0,-100.5625,-514.625,7.875,128.3125,-38.1875,60.0,94881.5,9152.4,7927.112396694215,304.7,-13.0,-388.0,714.0,432.0,312.0,420.0,77.0,332.0,123.375,185.0,-17.625,113.0625,94888.75,9009.35,7806.886363636363,199.25,-1237.0,-1114.0,-839.0,-639.0,-335.0,-723.0,-100.5625,-514.625,-73.0625,128.3125,-44.625,60.0,94872.5,FrontEntrance,TIESHOES
9126.34696969697,7864.492286501377,248.55909090909094,-533.4848484848485,-754.7575757575758,128.8181818181818,28.09090909090909,-3.0,-34.27272727272727,-5.2897727272727275,-21.964015151515152,6.456439393939394,149.2443181818182,-34.78598484848485,79.0094696969697,94886.94696969698,9119.2,7864.336363636363,241.4,-588.0,-705.0,226.0,4.0,39.0,-54.0,-1.1875,-63.625,7.875,151.75,-37.0,74.3125,94888.75,42.805424487210686,31.494451078165184,25.384765530190098,228.03866465088237,160.4073000020242,315.1732117567908,190.05728801409518,133.52481042862408,187.68895024868817,26.07256727298916,137.36836830549393,31.12468030100811,23.560600489355828,5.348385925452254,17.878196564679083,5.834219359117639,9100.0,7850.0,250.0,-972.0,-1216.0,444.0,-476.0,-411.0,-474.0,-57.4375,-418.0,7.875,155.1875,-38.1875,67.875,94887.0,9245.25,7922.136363636363,304.7,-13.0,-560.0,792.0,432.0,220.0,358.0,41.875,218.25,61.1875,185.0,-23.1875,113.0625,94892.75,9069.0,7801.9681818181825,210.35,-972.0,-1216.0,-566.0,-476.0,-411.0,-474.0,-57.4375,-418.0,-62.4375,108.625,-42.1875,58.0625,94876.5,FrontEntrance,TIESHOES
9251.49090909091,7815.0608815426995,304.32878787878786,-458.6363636363636,-806.939393939394,163.75757575757575,33.36363636363637,-5.666666666666667,-33.0,-12.426136363636363,8.293560606060606,0.08901515151515152,131.68560606060606,-29.12878787878788,71.80681818181819,94882.78787878787,9250.3,7816.568181818182,277.9,-475.0,-804.0,228.0,12.0,4.0,-54.0,-11.375,-37.5,8.8125,122.5,-32.0625,73.1875,94882.75,125.90047002403428,68.26614595687964,92.1990654019055,248.65749764759485,206.93959556382924,256.2600035002329,207.78005471258217,181.84225077430892,152.76841132904406,22.918527440381315,133.7656975353592,42.40696109361146,34.519141983732545,8.737140933278658,17.476849668212065,8.608934587673929,9100.0,7900.0,250.0,-370.0,-1270.0,-463.0,-486.0,-108.0,2.0,-31.625,-168.75,-130.4375,0.0,-32.0625,74.3125,94891.5,9437.35,7922.136363636363,513.8,186.0,-426.0,792.0,453.0,361.0,358.0,33.3125,363.375,61.1875,195.125,0.0,102.3125,94892.75,9069.0,7703.318181818182,210.35,-1011.0,-1270.0,-463.0,-486.0,-470.0,-256.0,-57.4375,-168.75,-130.4375,0.0,-38.4375,0.0,94870.0,FrontEntrance,TIESHOES
9318.374242424241,7740.2055346857,454.9848484848485,-235.45454545454547,-874.060606060606,-68.75757575757575,-7.757575757575758,25.060606060606062,-66.72727272727273,-8.731060606060606,51.72537878787879,-6.825757575757576,156.26136363636363,-17.242424242424242,87.75378787878788,94878.53787878787,9314.35,7732.518181818183,505.0,-221.0,-860.0,12.0,34.0,41.0,-77.0,-6.0625,17.0,1.8125,171.0625,-13.875,95.625,94881.75,69.74817103472604,51.747094068489815,104.22660745106106,393.25525194435505,239.33148291046294,397.7763999962031,339.7301346568176,229.9948286638663,362.36422222048157,25.56024824304749,137.8225539659165,41.00528368910242,44.55298388090029,10.969058907417443,21.059340797208574,4.885454020339203,9300.0,7750.0,550.0,-370.0,-885.0,-948.0,-944.0,-635.0,-109.0,-87.875,-125.5625,-130.4375,181.9375,-33.9375,95.625,94881.75,9437.35,7827.868181818182,565.95,894.0,-426.0,954.0,1022.0,473.0,1283.0,34.625,363.375,56.25,209.3125,0.0,115.5,94882.75,9190.35,7650.586363636363,277.9,-1011.0,-1533.0,-948.0,-944.0,-635.0,-678.0,-87.875,-125.5625,-130.4375,0.0,-33.9375,0.0,94870.0,FrontEntrance,TIESHOES
9249.23484848485,7793.239481592787,472.9727272727273,-158.72727272727272,-908.2727272727273,-183.96969696969697,-56.57575757575758,33.72727272727273,-55.03030303030303,6.191287878787879,7.204545454545454,11.903409090909092,180.27272727272728,-11.575757575757576,100.30492424242425,94879.34848484848,9241.65,7796.544214876032,492.8,-187.0,-885.0,-174.0,-81.0,55.0,-68.0,6.5,-8.4375,7.625,182.875,-8.5625,99.4375,94881.75,49.10703629071467,96.33410927243291,79.72768015535473,365.739343037435,249.26583108291146,359.0601868810162,305.7320140154436,241.86712167108317,363.18594452846094,33.066878326126414,112.26386706253177,37.254712405457546,20.274476539979286,7.809964550697009,6.14677962829065,5.319458455291831,9200.0,7800.0,550.0,-678.0,-819.0,-948.0,-944.0,-635.0,-678.0,-87.875,-143.6875,-69.75,142.0625,-8.5,95.625,94871.5,9354.15,7973.592975206612,565.95,894.0,-484.0,954.0,1022.0,473.0,1283.0,73.5625,341.25,100.3125,209.3125,-4.0625,115.5,94886.25,9188.15,7650.586363636363,306.35,-678.0,-1533.0,-948.0,-944.0,-635.0,-678.0,-87.875,-143.6875,-69.75,142.0625,-32.5625,91.25,94871.5,FrontEntrance,TIESHOES
9217.444117647057,7906.90292902285,344.34999999999997,-375.79411764705884,-782.5588235294117,-232.58823529411765,43.05882352941177,7.0,-35.705882352941174,2.3088235294117645,-25.86764705882353,10.865808823529411,157.47610294117646,-26.919117647058822,105.49264705882354,94878.91911764706,9209.05,7929.360123966942,302.0,-420.5,-812.0,-189.0,-36.0,21.0,-52.5,5.59375,-31.8125,6.375,151.75,-31.28125,101.9375,94881.0,27.180551660917306,66.97021383025695,74.86310941655545,438.9116553208294,418.89133552795306,339.59254709020877,399.6488565680499,378.10668688435896,246.358267005443,42.48135994190122,152.1260821753062,47.95105353505213,27.587258320886555,15.112242063397128,17.44536089177822,5.117824092354602,9200.0,7950.0,300.0,-1032.0,-1477.0,-890.0,-36.0,-835.0,-144.0,-99.9375,-429.0625,-110.5625,106.25,-6.375,101.5,94871.5,9269.55,8004.55,492.8,1352.0,680.0,581.0,1984.0,1237.0,552.0,73.625,249.4375,128.375,203.75,-4.5625,132.0625,94886.25,9181.85,7795.3942148760325,265.7,-1032.0,-1477.0,-890.0,-483.0,-835.0,-477.0,-99.9375,-429.0625,-110.5625,106.25,-47.875,68.625,94871.5,FrontEntrance,TIESHOES
9199.045454545454,8068.599360244063,269.30909090909086,-555.2727272727273,-690.6969696969697,-84.0,71.63636363636364,-9.454545454545455,-28.242424242424242,-6.9356060606060606,16.395833333333332,4.429924242424242,128.57575757575756,-39.50568181818182,95.76893939393939,94880.23484848485,9194.1,8004.55,275.55,-617.0,-710.0,47.0,7.0,-20.0,-5.0,-5.5,-7.1875,1.8125,119.625,-39.8125,85.25,94881.75,31.10049327290766,135.87912129424828,22.026817655365637,395.2394268610541,373.551660152957,422.122760580379,403.5277885553405,352.2070671945953,247.7232617134277,37.32629850088892,196.32099299786222,41.06288574060089,22.14974096459751,3.978530138086061,24.89690404973753,4.2518099978216055,9200.0,7950.0,300.0,-701.0,-1477.0,-890.0,-483.0,-835.0,-477.0,7.625,-429.0625,-110.5625,111.25,-37.1875,66.5625,94881.75,9259.8,8282.698647633359,297.65,1352.0,680.0,581.0,1984.0,1237.0,552.0,73.625,453.75,128.375,176.5625,-29.5,132.0625,94888.0,9141.2,7921.785123966943,225.0,-1032.0,-1477.0,-890.0,-483.0,-835.0,-477.0,-99.9375,-429.0625,-110.5625,102.625,-47.875,66.5625,94874.75,FrontEntrance,TIESHOES
9178.5609375,8140.936512725394,241.371875,-525.28125,-731.6875,-85.09375,46.75,5.09375,-53.6875,2.671875,19.349609375,4.42578125,132.3046875,-36.966796875,92.919921875,94882.8671875,9174.375,8143.286363636364,231.075,-615.0,-731.5,7.0,-25.0,13.0,-30.0,4.125,-50.40625,0.125,126.6875,-37.9375,92.03125,94882.5,26.190301499622443,96.89575293037511,24.06125227179784,260.7323722894367,203.0060284342442,530.1314723954744,335.3675884083593,192.65217853728333,438.08199538148034,34.270684829890364,245.32627779234602,51.89504431417281,26.631051248964994,5.395146610551446,19.4808582795578,4.5245675140853105,9150.0,8050.0,250.0,-802.0,-590.0,-1435.0,-693.0,-514.0,-1061.0,-88.4375,-442.125,-158.6875,126.9375,-37.1875,66.5625,94888.0,9236.55,8282.698647633359,289.55,349.0,-77.0,1342.0,1226.0,630.0,1622.0,68.25,475.0625,120.25,205.8125,-20.4375,133.4375,94888.0,9141.2,7958.431705484598,214.35,-802.0,-1122.0,-1435.0,-693.0,-514.0,-1061.0,-88.4375,-442.125,-158.6875,102.625,-43.875,66.5625,94874.75,FrontEntrance,TIESHOES
9209.401515151516,8015.238741661544,221.55454545454546,-473.90909090909093,-699.969696969697,-310.1212121212121,13.818181818181818,26.939393939393938,-63.06060606060606,2.4204545454545454,-0.7973484848484849,3.9261363636363638,149.69886363636363,-33.433712121212125,108.39015151515152,94885.87121212122,9192.15,7983.639105935386,221.7,-480.0,-686.0,-362.0,-4.0,30.0,-94.0,5.375,-20.5,0.3125,147.6875,-36.8125,108.25,94885.25,52.97988781846919,93.79804248941733,21.29714756295269,278.45313380759916,209.06375894217126,511.3903693348994,364.61190450819197,195.54442260550724,440.15792190090275,33.76664546384023,253.18274757476578,50.500300834851586,28.49838286318649,7.505221805131644,17.24619261581961,2.6773946729700655,9200.0,7950.0,200.0,-253.0,-718.0,-1435.0,-693.0,-5.0,-156.0,5.3125,-519.25,-158.6875,126.9375,-40.3125,72.125,94890.0,9334.05,8243.298647633357,252.65,349.0,-77.0,1342.0,1226.0,630.0,1622.0,68.25,475.0625,120.25,205.8125,-18.75,133.4375,94890.0,9146.6,7908.339105935386,157.55,-942.0,-1122.0,-1435.0,-693.0,-514.0,-1061.0,-88.4375,-519.25,-158.6875,101.5625,-42.375,72.125,94882.25,FrontEntrance,TIESHOES
9250.448529411762,8036.173137181243,148.8544117647059,-404.55882352941177,-689.4117647058823,-414.5882352941176,-23.735294117647058,23.705882352941178,-32.11764705882353,6.068014705882353,2.5919117647058822,1.4301470588235294,170.89705882352942,-26.125,118.55698529411765,94884.99264705883,9245.2,7986.723196844478,145.2,-353.5,-680.5,-528.0,-11.0,32.5,-35.0,5.34375,11.28125,0.15625,175.09375,-25.6875,126.0,94885.25,55.03223502376784,112.9828763373127,73.32171984588635,213.66983751863677,113.77253160717923,327.34303364449244,223.56943316081978,101.3516319438553,182.89817745266907,19.6169362392919,166.02501881911027,16.020204784626028,34.06634806715857,9.8338589677181,17.571952780998927,3.864408935026455,9200.0,7950.0,50.0,-563.0,-717.0,-788.0,-590.0,-5.0,-156.0,6.0625,-519.25,11.5625,101.5625,-40.3125,119.0,94887.25,9356.4,8315.3,251.95,-5.0,-459.0,472.0,396.0,278.0,344.0,61.1875,245.3125,34.875,213.8125,-12.75,135.0,94890.0,9141.5,7908.339105935386,60.8,-942.0,-1052.0,-788.0,-590.0,-282.0,-548.0,-27.25,-519.25,-43.75,101.5625,-42.375,72.125,94877.75,FrontEntrance,TIESHOES
8914.868181818181,8076.849642633267,134.17424242424244,-426.06060606060606,-842.6666666666666,104.36363636363636,12.363636363636363,-21.818181818181817,-70.63636363636364,1.4829545454545454,-18.759469696969695,8.570075757575758,139.46969696969697,-24.943181818181817,80.60227272727273,94879.88636363637,8915.65,8045.757475582269,128.1,-495.0,-837.0,176.0,-56.0,-37.0,-3.0,-6.8125,-26.5625,5.6875,137.0,-20.0,75.0,94876.5,54.907216935398495,116.47484860912307,32.689319072739856,402.0854961474254,264.277040559082,546.2113154598352,454.5568458799885,208.46199511923248,415.481709749495,47.24911455624785,250.98228124380176,99.65396276280246,14.673673022915157,11.93419010515205,18.00119230386686,7.279865992148233,8850.0,8200.0,100.0,-174.0,-1458.0,-1407.0,103.0,-457.0,-3.0,-110.0,-657.4375,-210.5,134.5625,-53.1875,70.1875,94876.5,9013.25,8273.337456457893,202.95,582.0,-250.0,1868.0,2077.0,381.0,1204.0,156.125,549.4375,300.0625,175.5625,-9.125,143.125,94896.0,8819.4,7922.6,83.95,-1369.0,-1458.0,-1407.0,-524.0,-457.0,-1591.0,-110.0,-657.4375,-210.5,113.1875,-53.1875,66.3125,94874.75,FrontEntrance,TIESHOES
8965.922058823531,8105.367479469911,105.01029411764706,-405.79411764705884,-881.6176470588235,152.0,-50.911764705882355,-15.470588235294118,-47.205882352941174,-0.0900735294117647,14.617647058823529,-1.2481617647058822,138.5496323529412,-21.801470588235293,76.90441176470588,94879.19117647059,8976.0,8094.533373293383,96.95,-353.0,-894.5,164.0,-7.5,-17.0,-34.0,1.875,-7.0625,1.5,136.46875,-18.875,75.09375,94876.5,96.07253509022806,101.05695439433015,46.793758939290704,351.8862401756503,202.68515885120527,323.73951369468745,318.3249119286255,187.76342873238247,289.64029723526244,36.41425427738103,153.80471723188708,41.419204978199055,15.570007616290551,8.415937242266924,7.537441819937869,4.682761270813364,8850.0,8050.0,100.0,-1275.0,-1332.0,23.0,91.0,-528.0,-761.0,-126.5625,-171.3125,-118.1875,113.1875,-42.5,75.0,94876.5,9105.5,8273.337456457893,202.95,122.0,-268.0,798.0,639.0,452.0,641.0,74.0625,574.4375,81.3125,168.875,-12.5,95.6875,94887.25,8819.4,7914.54517600836,31.45,-1275.0,-1332.0,-538.0,-720.0,-528.0,-761.0,-126.5625,-171.3125,-118.1875,113.1875,-42.5,68.3125,94874.75,FrontEntrance,TIESHOES
8970.568181818182,8034.556222773279,57.60151515151516,-390.75757575757575,-893.4545454545455,88.12121212121212,-36.39393939393939,-5.2727272727272725,-57.96969696969697,1.6003787878787878,34.16477272727273,-8.657196969696969,163.38825757575756,-20.460227272727273,79.95833333333333,94884.25757575757,9006.8,8040.95,63.75,-274.0,-922.0,75.0,15.0,6.0,-99.0,8.75,4.125,-0.375,166.4375,-17.0,78.75,94886.25,113.24603112401283,61.700811095452416,35.25934602353787,357.5883658537277,255.81855030825693,277.66636427281725,324.39327399334474,228.87978186256328,262.2879482611245,39.82942738710724,143.33241471472718,47.40159193808451,20.72664794304711,9.505123235401552,6.33740959830329,3.5374585070914883,9050.0,8050.0,50.0,-1275.0,-1630.0,23.0,-814.0,6.0,-761.0,-126.5625,-150.5,-118.1875,115.375,-17.9375,80.1875,94886.25,9105.5,8178.659271004498,108.2,209.0,-268.0,798.0,639.0,452.0,641.0,74.0625,574.4375,81.3125,195.3125,-7.25,95.6875,94887.25,8730.15,7914.54517600836,-20.5,-1275.0,-1630.0,-538.0,-814.0,-698.0,-761.0,-126.5625,-150.5,-118.1875,115.375,-42.5,68.3125,94874.75,FrontEntrance,TIESHOES
8746.031818181818,8105.288941108766,6.243939393939392,-281.72727272727275,-945.030303030303,73.39393939393939,-61.484848484848484,-9.515151515151516,-66.3030303030303,2.1136363636363638,-4.8125,14.717803030303031,186.53598484848484,-11.43560606060606,79.8655303030303,94886.74242424243,8726.75,8079.95,-11.55,-237.0,-975.0,58.0,-52.0,4.0,-53.0,9.0625,-8.5,3.9375,190.6875,-11.1875,80.1875,94886.25,154.73764026681056,89.87646100246296,47.325237317114556,269.98232265364067,209.8582088054463,142.37054193940966,237.85212333665967,187.11579322910606,150.19414203966247,32.33311439923877,58.66679613503707,65.44309819880495,14.94709117995708,7.92545661219826,6.3693319090626,3.171827184667213,8600.0,8200.0,-50.0,-1012.0,-1630.0,-278.0,-814.0,-698.0,-471.0,-85.875,-142.8125,-98.0,202.4375,-17.9375,76.0625,94884.0,9037.8,8277.85,108.2,209.0,-531.0,423.0,450.0,366.0,187.0,42.25,231.75,204.625,202.4375,-1.25,89.75,94892.25,8574.05,7967.37043133403,-50.8,-1012.0,-1630.0,-278.0,-814.0,-698.0,-471.0,-85.875,-142.8125,-98.0,148.0625,-35.25,66.5,94883.5,FrontEntrance,TIESHOES
8790.080303030301,8123.215564738292,15.650000000000002,-406.75757575757575,-840.4242424242424,30.484848484848484,-5.2727272727272725,-44.39393939393939,-76.9090909090909,6.454545454545454,-15.68939393939394,33.41477272727273,168.44507575757575,-25.21212121212121,83.16856060606061,94888.4696969697,8699.45,8144.2,-11.15,-324.0,-870.0,50.0,-11.0,-30.0,-53.0,7.75,-13.125,11.25,169.75,-34.9375,78.4375,94890.0,218.6380320370412,103.13688037646456,62.4139645331876,313.9488443901958,210.6892009428566,321.66530754148414,261.42114881060127,127.1996313364202,215.44320069863593,50.18938564894157,191.76452023741732,79.40872625360623,30.375730434149958,18.839771679145915,18.87738941860969,3.137946666261718,8600.0,8200.0,-50.0,-1136.0,-1105.0,13.0,-508.0,-287.0,-226.0,-88.4375,-520.25,-191.5,138.125,-49.5,73.0625,94884.0,9191.55,8277.85,143.5,33.0,-262.0,718.0,613.0,238.0,372.0,158.5625,502.25,204.625,202.4375,-1.25,137.3125,94892.25,8574.05,7936.636363636363,-50.8,-1136.0,-1105.0,-764.0,-508.0,-287.0,-636.0,-88.4375,-520.25,-191.5,119.1875,-49.5,60.875,94883.5,FrontEntrance,TIESHOES
9089.739393939393,8042.541460055096,64.97727272727273,-559.1515151515151,-666.2424242424242,239.9090909090909,70.45454545454545,-28.0,-30.636363636363637,-9.431818181818182,3.475378787878788,22.994318181818183,123.29166666666667,-39.28409090909091,70.66477272727273,94884.59090909091,9147.1,8032.054545454545,58.7,-599.0,-664.0,293.0,66.0,-30.0,-28.0,-11.3125,-26.875,12.25,120.25,-39.6875,63.25,94888.0,168.35401676859735,105.35703099857018,52.72253148990995,342.59297289313685,184.36648799046804,473.70305596150916,316.9577151321895,156.78548242742374,284.9388989526766,52.89458848617843,225.26440570014157,66.26103859179076,23.527678942732358,5.553167445609512,24.188382262362456,6.504751322896769,9150.0,7950.0,50.0,-1262.0,-1046.0,-764.0,-619.0,0.0,-226.0,-119.0,-520.25,-191.5,138.125,-43.0,73.0625,94888.0,9278.45,8265.5,143.5,-26.0,-262.0,1212.0,735.0,365.0,568.0,158.5625,542.9375,162.875,173.1875,-28.4375,137.3125,94890.5,8668.2,7898.736363636363,-16.55,-1262.0,-1046.0,-764.0,-619.0,-287.0,-636.0,-119.0,-520.25,-191.5,90.75,-49.5,48.4375,94873.75,FrontEntrance,TIESHOES
9223.875,8011.718582887703,70.89411764705882,-492.9117647058824,-647.9705882352941,-20.147058823529413,-0.5882352941176471,9.852941176470589,-66.47058823529412,-6.15625,60.283088235294116,1.0404411764705883,148.0827205882353,-30.595588235294116,84.72426470588235,94881.98529411765,9226.95,8000.870454545455,87.675,-484.0,-623.5,-160.0,51.0,40.5,-25.5,-6.625,30.9375,2.03125,118.59375,-36.28125,89.15625,94880.75,47.39485371948009,80.0869170211089,42.497883663360554,449.0910933879983,251.09511481606324,582.2247890558142,394.40927194576886,212.64398079147438,287.8866817568622,35.90206339162855,189.1174949662114,59.74985118363168,69.51584583466533,21.594117877705056,30.52399902516729,5.077408809019,9250.0,7950.0,100.0,-484.0,-1111.0,-1104.0,-1277.0,-358.0,-717.0,-119.0,-184.8125,-125.3125,90.75,-56.625,48.4375,94888.0,9297.8,8159.254545454545,126.75,384.0,120.0,1212.0,735.0,423.0,568.0,58.875,691.3125,146.3125,306.4375,17.5625,126.1875,94890.5,9135.9,7898.736363636363,-12.7,-1262.0,-1111.0,-1104.0,-1277.0,-358.0,-717.0,-119.0,-184.8125,-125.3125,90.75,-56.625,48.4375,94873.75,FrontEntrance,TIESHOES
9257.170588235294,7926.810695187167,53.62566844919786,-224.97058823529412,-759.0294117647059,-515.2352941176471,-29.88235294117647,-8.529411764705882,-137.52941176470588,16.02573529411765,12.384191176470589,2.150735294117647,222.12316176470588,-12.704044117647058,114.73897058823529,94885.2205882353,9259.650000000001,7919.943181818182,65.27727272727273,-305.0,-764.0,-465.5,-45.5,25.5,-107.0,10.84375,-19.8125,2.21875,225.9375,-9.09375,120.84375,94885.0,34.09057258300962,94.64558547862373,43.92104085521084,566.3881571530957,312.84515341910816,318.59198365607205,429.6115063005308,262.6344660266395,325.493865816995,37.85113108538447,176.35867467637163,56.58150864597974,73.24219675653536,27.94632770513042,11.329511428619945,2.6427177713958288,9250.0,7950.0,100.0,-484.0,-1590.0,-1421.0,-164.0,-731.0,-298.0,-87.3125,-253.75,-125.3125,117.8125,20.0625,122.1875,94885.0,9310.95,8131.354545454546,119.9,1637.0,120.0,-12.0,1430.0,471.0,388.0,94.9375,691.3125,109.875,313.6875,20.5,126.1875,94889.0,9190.75,7798.8,-28.845454545454544,-1250.0,-1590.0,-1421.0,-1277.0,-731.0,-999.0,-87.3125,-253.75,-125.3125,117.8125,-56.625,88.9375,94880.75,FrontEntrance,TIESHOES
8971.915151515152,8215.381078664523,284.4878787878788,-52.72727272727273,-838.060606060606,-289.2121212121212,98.21212121212122,-32.78787878787879,-46.36363636363637,-6.946969696969697,1.4488636363636365,-6.6231060606060606,169.81060606060606,0.5776515151515151,102.56628787878788,94872.2196969697,8983.25,8217.86452086606,286.55,-92.0,-775.0,-258.0,82.0,49.0,-64.0,-3.8125,-26.375,-0.5625,183.5,3.4375,101.0,94874.75,52.47691528908279,64.14795744840414,20.383629423752005,480.32061380441974,287.1945050172813,613.9718416576487,607.2742768704145,580.047452669594,606.5381180407079,54.773570931258014,121.46000605119936,49.50031438516918,36.51474406848331,11.945749668085957,8.007883984344646,5.374548518741182,9000.0,8250.0,300.0,-1898.0,-714.0,-2739.0,-805.0,-3008.0,-126.0,-137.9375,-176.375,13.3125,201.75,-26.4375,100.0625,94864.25,9041.0,8316.45672426747,324.75,900.0,13.0,1281.0,2766.0,577.0,1836.0,148.4375,238.625,85.6875,210.3125,17.1875,116.1875,94878.0,8849.45,8102.48972747763,242.5,-1898.0,-1361.0,-2739.0,-805.0,-3008.0,-2236.0,-137.9375,-176.375,-110.4375,105.3125,-26.4375,89.25,94864.25,FrontEntrance,TIESHOES
8912.533333333335,8224.816924762963,223.3469696969697,-181.1818181818182,-859.060606060606,-313.6666666666667,86.21212121212122,-55.75757575757576,-46.75757575757576,4.0852272727272725,-6.946969696969697,21.806818181818183,185.96212121212122,-6.611742424242424,105.47537878787878,94871.7196969697,8891.05,8233.49162283997,242.5,-202.0,-800.0,-264.0,-71.0,92.0,-56.0,9.0625,-27.5625,26.125,190.25,-4.875,107.5625,94874.5,64.53973662920123,62.81411884353929,71.64881796324558,528.8774346756448,403.4150266315339,555.6570247613781,606.7813525879687,637.6412603446701,562.5711083000436,56.377115091155744,104.79719896281665,49.16509318211991,17.257378824012456,13.765862277819503,7.212472571471138,5.441362699756655,8900.0,8250.0,300.0,-1898.0,-714.0,-2739.0,-685.0,-271.0,-394.0,-137.4375,-238.75,-92.9375,201.75,-29.5,113.25,94874.5,9032.7,8306.84162283997,324.75,900.0,13.0,1281.0,2766.0,679.0,1836.0,148.4375,236.0625,102.125,210.3125,14.9375,116.1875,94889.0,8841.55,8102.48972747763,92.15,-1898.0,-1671.0,-2739.0,-685.0,-3008.0,-2236.0,-137.4375,-238.75,-92.9375,155.0,-29.5,96.3125,94864.25,FrontEntrance,TIESHOES
8837.82794117647,8200.221917025186,154.7485294117647,-412.05882352941177,-940.8235294117648,-282.70588235294116,-64.05882352941177,-31.735294117647058,-90.17647058823529,4.511029411764706,8.854779411764707,4.014705882352941,175.1452205882353,-19.83639705882353,101.5716911764706,94879.11764705883,8844.425,8187.97589133256,148.375,-348.5,-895.5,-208.5,65.0,6.5,-56.5,4.46875,6.125,13.0625,172.375,-23.75,99.5,94876.0,42.91957629061743,79.13991597660623,40.726570668028224,591.0469878863126,404.02688708821853,393.60598121623843,599.1203117488917,371.35136582271474,363.47243408363295,49.86473528881258,264.6322440716777,72.83887472444226,26.767706546800454,7.88815661895367,9.177736932228582,5.930543466753421,8850.0,8150.0,150.0,-3058.0,-884.0,-1385.0,-2828.0,-58.0,-1301.0,-137.25,-825.4375,-192.4375,134.0,-26.5,113.25,94874.5,8901.4,8306.84162283997,272.85,500.0,-137.0,605.0,672.0,679.0,614.0,118.625,709.1875,136.0625,250.8125,-4.875,119.3125,94889.0,8753.85,8061.117286139173,92.15,-3058.0,-1760.0,-1385.0,-2828.0,-810.0,-1301.0,-137.25,-825.4375,-192.4375,134.0,-30.75,85.875,94874.5,FrontEntrance,TIESHOES
8828.276470588235,8158.23803275506,146.275,-329.11764705882354,-933.2647058823529,-224.7058823529412,-39.8235294117647,-20.5,-80.70588235294117,2.2775735294117645,-20.784926470588236,-4.338235294117647,177.05698529411765,-19.408088235294116,100.49816176470588,94881.66911764706,8831.475,8162.624909035027,145.975,-355.0,-905.5,-204.5,14.5,6.5,-56.5,2.90625,-44.28125,0.40625,173.8125,-19.25,101.46875,94880.75,35.590970159055104,49.180272442864045,30.063594842408396,677.8906126429598,275.19076676101787,542.2852055945964,671.1918151787336,245.4233509919568,503.80007635375205,39.43754109389058,311.23574766230035,67.25548818297908,27.6682113007529,6.199611945908985,8.053950501312054,4.465236338817614,8850.0,8150.0,150.0,-3058.0,-884.0,-1385.0,-2828.0,-58.0,-1301.0,-59.0,-825.4375,-8.875,134.0,-30.75,85.875,94876.0,8885.95,8265.427272727273,190.15,1440.0,-441.0,1488.0,1571.0,398.0,1684.0,118.625,709.1875,136.0625,250.8125,-5.6875,119.3125,94889.0,8753.85,8061.117286139173,98.4,-3058.0,-1760.0,-1385.0,-2828.0,-810.0,-1301.0,-59.0,-825.4375,-192.4375,134.0,-30.75,85.875,94876.0,FrontEntrance,TIESHOES
8867.095454545453,8235.026915311786,136.46363636363637,-200.4848484848485,-901.4848484848485,-224.8181818181818,46.60606060606061,12.484848484848484,-41.42424242424242,0.4753787878787879,17.549242424242426,4.732954545454546,182.49242424242425,-17.172348484848484,103.1534090909091,94878.04545454546,8868.65,8219.927272727273,128.65,-251.0,-894.0,-287.0,29.0,5.0,-19.0,3.6875,32.375,-0.5625,178.375,-18.0625,103.3125,94880.75,26.15092422971266,69.08290069889517,29.52017390893279,460.1648564110015,137.60226224796443,458.6566290909692,442.52428883861415,124.02472566289988,425.12277861100245,27.476649974066135,206.68051408333562,34.79062048332936,28.735979757288057,5.394768115795225,6.552766049366272,6.451881552553629,8850.0,8200.0,150.0,-1222.0,-1239.0,-966.0,-796.0,1.0,-696.0,-55.1875,-489.5,-51.9375,126.1875,-26.5,86.5625,94866.25,8922.4,8355.14090909091,190.15,1440.0,-527.0,1488.0,1571.0,384.0,1684.0,68.8125,405.0625,121.4375,226.6875,-8.9375,112.0,94885.5,8821.6,8096.367286139173,98.1,-1222.0,-1239.0,-966.0,-796.0,-284.0,-696.0,-55.1875,-489.5,-51.9375,126.1875,-26.5,86.5625,94866.25,FrontEntrance,TIESHOES
8891.924242424242,8216.763398447281,89.22575757575757,-275.45454545454544,-923.4242424242424,-226.96969696969697,-9.0,-15.090909090909092,-55.39393939393939,-0.9545454545454546,-9.280303030303031,4.785984848484849,181.18371212121212,-16.119318181818183,100.52083333333333,94878.66666666667,8883.3,8198.690909090908,98.1,-254.0,-924.0,-232.0,-20.0,-11.0,-55.0,5.6875,-32.3125,-0.0625,190.6875,-13.125,100.25,94880.25,22.46335599792231,78.9799525553562,40.710193596805624,278.6924930489126,72.69328988248773,225.68665845155823,245.51769284513895,69.03819759577105,192.918204719309,25.53028069958166,112.47848331694512,23.415411624373075,33.788609785240105,7.34229313402217,7.408634022066191,7.075945902610242,8900.0,8150.0,100.0,-398.0,-963.0,-102.0,-97.0,1.0,-76.0,-3.4375,-178.25,-37.9375,190.6875,-29.875,86.5625,94866.25,8938.7,8355.14090909091,158.6,302.0,-745.0,285.0,741.0,142.0,405.0,68.8125,272.9375,45.5,226.6875,-8.125,112.0,94886.75,8860.2,8102.95,17.7,-1222.0,-1061.0,-746.0,-796.0,-129.0,-596.0,-68.0625,-178.25,-37.9375,116.0625,-29.875,86.5625,94866.25,FrontEntrance,TIESHOES
8977.812121212119,8127.183875190674,139.2348484848485,-298.030303030303,-906.3939393939394,-144.75757575757575,43.63636363636363,-1.6666666666666667,-74.66666666666667,-0.5265151515151515,-38.78787878787879,3.2045454545454546,157.7973484848485,-20.053030303030305,94.76893939393939,94876.18939393939,8920.25,8144.890909090909,88.5,-379.0,-946.0,-181.0,-20.0,-21.0,-91.0,5.6875,-71.6875,4.5625,152.8125,-22.25,96.1875,94878.5,118.0929665760619,73.9863546122283,117.43967765733001,228.51018643165628,149.70010424886553,165.2466017621524,256.2772934466954,127.38197151350212,151.02641877058022,22.784947136035903,108.70313054678944,38.0780585527454,31.373653911234996,8.092892106019827,6.427907082788466,7.893091892358288,8900.0,8150.0,50.0,-468.0,-963.0,-181.0,-401.0,-36.0,-76.0,-3.4375,-178.25,-120.3125,190.6875,-20.0,96.75,94880.25,9248.35,8212.99090909091,388.35,196.0,-473.0,279.0,814.0,356.0,200.0,34.6875,242.25,54.0625,213.75,-8.125,103.5,94886.75,8863.25,7923.482081141998,17.7,-730.0,-1215.0,-442.0,-401.0,-262.0,-445.0,-68.0625,-178.25,-120.3125,110.4375,-33.4375,79.375,94863.75,FrontEntrance,TIESHOES
9119.779687499999,8004.80282447408,341.1375,-255.5,-897.46875,-112.03125,15.34375,34.0,-84.6875,-1.337890625,33.3359375,-8.5625,159.87890625,-16.98828125,93.98828125,94874.375,9122.974999999999,7968.775,398.6,-258.0,-870.0,-142.5,-9.5,26.5,-91.0,0.96875,27.0,3.25,162.65625,-18.4375,96.46875,94870.0,120.05657527866241,125.50502454830558,142.02543048069174,324.5255594089276,171.1799627208067,259.34240467556253,323.5605950503782,143.68873168381447,265.7349440398665,18.94961525174757,117.88538137801959,54.152771687621055,29.227831142273455,9.167810500329928,7.18232523218821,8.852965604812887,9100.0,7950.0,450.0,-281.0,-1215.0,-181.0,-623.0,-262.0,-986.0,-41.1875,-144.125,-177.25,110.4375,-33.4375,90.4375,94887.0,9283.85,8207.413899323816,501.0,233.0,-473.0,524.0,814.0,356.0,705.0,34.6875,242.25,55.125,207.8125,-5.3125,103.5,94887.0,8909.2,7795.692824943651,81.8,-1396.0,-1215.0,-770.0,-623.0,-262.0,-986.0,-41.1875,-144.125,-177.25,110.4375,-33.4375,79.375,94863.75,FrontEntrance,TIESHOES
9094.621875,8006.401878287003,415.8984375,-41.78125,-923.8125,-107.84375,-1.75,-9.9375,-60.40625,-6.794921875,33.681640625,-9.0625,180.634765625,-9.001953125,98.84765625,94881.0,9071.575,8004.424999999999,410.32500000000005,-94.5,-941.0,-197.5,-59.0,6.5,-50.5,-8.125,22.65625,-6.34375,182.625,-8.03125,100.3125,94882.25,109.1498710249263,115.53084540984415,47.40217513107661,655.6951363973667,279.6888175766406,400.580555256992,286.0876247450387,226.5938440498557,275.0430886331062,21.573125796854878,84.264221422495,47.77682756332958,16.389738114670713,4.2424471661305665,5.94984788832061,7.181124451441903,9000.0,7950.0,400.0,-249.0,-1441.0,-770.0,-77.0,-503.0,-986.0,-41.1875,-117.8125,-177.25,134.1875,-18.125,100.6875,94887.0,9283.85,8202.459090909091,501.0,3108.0,110.0,1604.0,732.0,455.0,705.0,43.1875,240.6875,55.125,207.8125,-3.125,104.75,94887.5,8957.2,7795.692824943651,338.05,-1396.0,-1441.0,-770.0,-623.0,-503.0,-986.0,-41.1875,-117.8125,-177.25,134.1875,-18.125,79.9375,94866.5,FrontEntrance,TIESHOES
9066.43787878788,8060.028662659654,310.87424242424237,-55.878787878787875,-890.2727272727273,-192.1818181818182,85.84848484848484,-27.181818181818183,-34.24242424242424,-8.179924242424242,-13.68560606060606,3.132575757575758,185.01136363636363,-13.875,104.07765151515152,94883.73484848485,9096.05,8050.5590909090915,331.0,-137.0,-926.0,-254.0,-3.0,-54.0,-26.0,-5.3125,-23.9375,-5.6875,183.5625,-9.75,104.375,94882.25,64.05960606915123,66.10558850737448,73.0392136984606,615.6745161597033,329.21367232460824,419.0219605332051,251.57095435633576,278.71955602198227,263.89913204468746,36.61549563903947,166.91596267263867,39.63915842027324,31.174187157925804,9.973757069335758,5.094589422375051,7.665094226920877,9100.0,8050.0,350.0,-756.0,-1441.0,-984.0,-139.0,-503.0,-590.0,-104.375,-404.5,-12.875,122.75,-8.3125,101.125,94878.75,9159.15,8202.459090909091,411.8,3108.0,110.0,1604.0,732.0,520.0,629.0,48.1875,546.5625,109.3125,246.625,-3.125,114.5,94897.5,8957.2,7929.442561983471,176.8,-756.0,-1441.0,-984.0,-394.0,-503.0,-590.0,-104.375,-404.5,-47.0625,122.75,-33.1875,89.25,94876.0,FrontEntrance,TIESHOES
9108.406060606061,7972.665684400779,181.19090909090906,-247.27272727272728,-872.3939393939394,-307.8484848484849,48.72727272727273,8.303030303030303,-79.78787878787878,-1.2916666666666667,6.1268939393939394,7.856060606060606,179.79924242424244,-17.585227272727273,104.4034090909091,94881.01515151515,9108.35,7952.2055970977,176.8,-229.0,-877.0,-281.0,-10.0,-4.0,-9.0,3.125,-31.0625,11.625,177.875,-16.0625,104.625,94876.25,26.402455371067347,57.54375343749259,85.10592889759637,264.8029069807477,226.65873844200493,421.2848740172825,280.76338711707865,212.90776830127714,387.02573861241433,47.783602037706586,258.2358037588525,58.70449843026799,38.09029464684073,9.722979613468315,7.626378123877171,9.197473199611714,9100.0,7950.0,150.0,-756.0,-947.0,-1361.0,-435.0,-440.0,-365.0,-5.3125,-544.1875,-210.8125,120.4375,-4.0625,104.5,94876.25,9159.15,8063.959090909091,331.0,452.0,-342.0,613.0,726.0,520.0,833.0,106.875,551.5,109.3125,246.625,-4.0625,116.625,94897.5,9038.95,7896.828249436515,33.75,-756.0,-1354.0,-1361.0,-435.0,-440.0,-1149.0,-104.375,-544.1875,-210.8125,120.4375,-33.1875,86.3125,94871.25,FrontEntrance,TIESHOES
9044.95625,8019.656168937936,40.385937500000004,-258.1875,-892.4375,-330.09375,21.09375,-2.0625,-65.625,6.482421875,14.966796875,1.3359375,171.095703125,-15.767578125,104.8359375,94877.609375,9045.625,7958.0055970977,35.025,-259.5,-907.5,-290.5,-16.5,-6.5,-65.5,3.71875,-3.71875,11.6875,169.75,-15.625,105.9375,94876.5,61.48927358595995,120.03371683504132,81.44384294672895,267.9446786305927,122.79932160682637,419.78153760559326,307.01942350817205,113.57530896480807,406.34251800111184,37.171597082057104,256.48522690214753,53.32264408747787,28.158832627316347,6.946806718371347,7.051344494022902,7.5796675974014045,9100.0,7950.0,-50.0,-229.0,-947.0,-1361.0,-778.0,-5.0,-1149.0,-72.4375,-544.1875,-210.8125,120.4375,-29.1875,106.25,94871.25,9145.55,8223.855281651708,170.9,452.0,-599.0,613.0,726.0,236.0,922.0,106.875,551.5,96.9375,223.9375,-3.9375,116.625,94887.0,8954.45,7896.828249436515,-75.4,-841.0,-1205.0,-1361.0,-778.0,-251.0,-1149.0,-72.4375,-544.1875,-210.8125,120.4375,-29.1875,86.3125,94862.25,FrontEntrance,TIESHOES
8963.170967741935,8271.117572744168,7.990322580645163,-152.67741935483872,-907.3225806451613,-328.38709677419354,23.193548387096776,-4.548387096774194,2.032258064516129,0.8629032258064516,4.917338709677419,-1.403225806451613,194.67741935483872,-9.84274193548387,108.70967741935483,94878.0,8956.75,8223.855281651708,-11.2,-121.0,-907.0,-339.0,34.0,-5.0,3.0,2.75,-2.1875,-1.3125,206.375,-8.0,110.625,94882.25,41.62166457946616,190.07851938807164,75.46527614224841,209.4762336713124,77.03738793459281,250.11952841516324,232.5200234180329,70.18159241552229,264.2192882021759,16.520460951206008,168.67059504269398,21.943754086618327,31.077817722103326,7.349707175426524,3.973530532470226,8.356135470419325,8950.0,8200.0,-50.0,-841.0,-1174.0,-435.0,-778.0,-5.0,-518.0,-0.9375,-5.6875,-79.625,126.375,-3.0,111.375,94862.25,9049.35,8537.012218917971,179.6,98.0,-712.0,296.0,464.0,194.0,922.0,40.875,287.0625,33.5,230.1875,-1.5,112.0,94887.0,8890.4,7963.8055970977,-75.4,-841.0,-1174.0,-868.0,-778.0,-184.0,-518.0,-37.0,-422.9375,-79.625,126.375,-25.125,95.0625,94862.25,FrontEntrance,TIESHOES
9156.583870967741,8050.795947747268,146.79032258064515,-157.96774193548387,-940.0967741935484,-276.2258064516129,2.6129032258064515,-14.935483870967742,-11.161290322580646,-4.743951612903226,1.3991935483870968,-5.901209677419355,144.33870967741936,-9.528225806451612,106.33266129032258,94884.20967741935,9174.4,8034.7,144.85,-119.0,-926.0,-268.0,38.0,-12.0,36.0,-4.75,-7.0625,-7.125,142.75,-9.1875,107.5,94880.5,53.705427080039804,80.3126495448671,33.395634493535326,227.24252593077256,78.47180166094047,234.9744255129934,267.5727536477204,81.41291276935985,248.01641031380612,38.26521468521918,124.7930084903716,35.39754425257356,11.880906143033448,3.9066529362074762,3.3478221736603055,7.980470113082717,9200.0,8050.0,150.0,-927.0,-1009.0,-928.0,-845.0,-12.0,1.0,-76.875,-289.875,20.1875,125.875,-7.125,109.3125,94877.75,9241.85,8180.95,223.55,257.0,-813.0,261.0,518.0,127.0,380.0,131.4375,434.6875,76.1875,179.25,-1.1875,109.5625,94899.5,9048.5,7868.4,99.45,-927.0,-1110.0,-928.0,-845.0,-172.0,-780.0,-76.875,-289.875,-73.125,125.875,-17.125,98.3125,94877.75,FrontEntrance,TIESHOES
9177.370967741934,7929.817675286589,139.458064516129,-70.03225806451613,-948.5806451612904,-238.48387096774192,10.35483870967742,-16.35483870967742,25.35483870967742,1.689516129032258,31.717741935483872,4.879032258064516,153.59677419354838,-5.264112903225806,105.8850806451613,94882.82258064517,9190.35,7868.4,138.3,-84.0,-924.0,-274.0,17.0,-8.0,1.0,4.9375,12.8125,-5.125,155.1875,-5.0625,106.6875,94881.0,68.87847725546985,106.25524576952738,27.661727762301812,162.2203201145421,138.65563438330432,162.9306336998953,154.4350021610163,144.29265363307002,176.74228854221556,19.110537041330485,99.05332879597998,38.13176147516562,14.104786778985535,4.4952147496155614,2.8330313920392007,5.616639545577608,9200.0,7850.0,150.0,-105.0,-924.0,-427.0,50.0,-12.0,-95.0,-44.375,-90.375,-10.125,125.875,-7.125,106.6875,94877.75,9285.75,8121.35,189.95,560.0,-545.0,376.0,518.0,365.0,709.0,53.8125,454.5,177.375,189.9375,0.5625,109.5625,94899.5,9015.05,7815.2,99.45,-338.0,-1285.0,-427.0,-368.0,-436.0,-280.0,-44.375,-90.375,-34.875,125.875,-14.6875,100.25,94877.75,FrontEntrance,TIESHOES
8997.903125,7957.905643078512,133.0828125,-49.1875,-954.84375,-221.6875,19.28125,-21.9375,-13.15625,-0.099609375,-0.490234375,6.353515625,174.943359375,-4.556640625,102.71484375,94882.6484375,8993.55,7897.64152892562,128.375,-63.0,-953.0,-259.0,19.0,-21.0,-44.5,8.1875,0.34375,-4.21875,167.0,-3.6875,103.5625,94883.0,203.68942279279335,150.11113868875026,30.728993898730653,247.2049479487063,161.28078288320452,275.75613788390126,243.682796773897,186.40779741063375,380.3848738024975,49.62520023974135,168.5793455417658,83.92803147988434,17.824019049710014,6.490229151521857,4.01135414437227,2.5863002711869973,9250.0,7850.0,100.0,45.0,-1062.0,-782.0,-433.0,-436.0,-807.0,-94.8125,-329.4375,-148.75,150.0625,-1.8125,97.5,94879.5,9285.75,8300.884710743801,189.95,560.0,-545.0,511.0,717.0,371.0,1324.0,138.6875,454.5,242.8125,213.6875,5.4375,108.25,94887.5,8686.25,7815.2,86.15,-633.0,-1285.0,-782.0,-433.0,-436.0,-807.0,-94.8125,-329.4375,-148.75,150.0625,-24.125,92.625,94879.5,FrontEntrance,TIESHOES
8757.635483870969,8251.301199680085,128.92258064516128,-70.35483870967742,-965.5806451612904,-241.25806451612902,21.93548387096774,-15.96774193548387,-39.225806451612904,-1.3991935483870968,-18.217741935483872,-1.2278225806451613,173.75,-4.977822580645161,102.2600806451613,94883.90322580645,8718.85,8300.884710743801,125.2,-113.0,-958.0,-268.0,-18.0,10.0,-101.0,3.1875,-0.9375,-8.5,168.3125,-4.8125,103.1875,94881.25,97.16663024031483,208.25385788181603,25.985812920096983,349.725754307295,144.74754441061592,283.8860061998989,358.0294155032396,163.49668373211077,393.7440547426225,49.060949225542814,151.24332877071916,79.08753317195958,19.168951403680556,6.6627374173438,3.5624304369741133,7.175675757769798,8700.0,8450.0,100.0,-633.0,-958.0,-334.0,-632.0,23.0,-807.0,-94.8125,-329.4375,-148.75,167.25,-5.375,103.9375,94877.75,8972.05,8487.85,179.0,846.0,-689.0,511.0,814.0,371.0,1324.0,138.6875,241.625,242.8125,213.6875,5.4375,108.25,94897.75,8660.15,7903.91652892562,86.15,-633.0,-1220.0,-782.0,-632.0,-365.0,-807.0,-94.8125,-329.4375,-148.75,147.25,-24.125,92.625,94877.75,FrontEntrance,TIESHOES
8771.04516129032,8370.504985337244,134.81129032258065,9.290322580645162,-951.9354838709677,-275.6774193548387,-9.0,8.838709677419354,-55.83870967741935,0.13306451612903225,30.60483870967742,4.19758064516129,189.3709677419355,0.9254032258064516,102.91733870967742,94884.0,8746.3,8387.0,131.0,-30.0,-947.0,-267.0,-4.0,15.0,-24.0,0.6875,35.0625,0.25,172.6875,-0.3125,103.0,94881.25,93.05321717064061,100.58591702790957,20.99925280288729,373.57847846187883,142.14779526578923,303.13433623799796,369.9241363667241,132.2497880966654,320.96792121894816,24.10970878703637,130.47878617795737,25.528788369569746,37.49329778816819,5.007297262361793,1.772723532623821,7.519419303820387,8700.0,8450.0,150.0,-113.0,-1194.0,-334.0,-793.0,-219.0,-884.0,-50.125,-246.875,-31.0625,147.25,-7.6875,101.75,94877.5,8935.8,8487.85,179.0,846.0,-689.0,362.0,814.0,231.0,596.0,53.9375,314.875,71.6875,262.5625,10.1875,107.1875,94897.75,8660.15,8168.045454545454,104.9,-627.0,-1194.0,-1093.0,-793.0,-219.0,-884.0,-50.125,-246.875,-31.0625,147.25,-7.6875,98.6875,94877.5,FrontEntrance,TIESHOES
9064.9609375,8724.719206043297,370.4828125,-111.8125,-880.4375,-225.65625,-26.9375,21.875,-40.84375,-18.763671875,13.134765625,-7.873046875,150.6484375,-5.73828125,100.798828125,94878.1328125,9044.15,8734.098969479695,369.92499999999995,-141.5,-856.5,-234.5,28.0,35.5,5.0,-21.25,3.6875,6.78125,138.3125,-3.96875,101.90625,94878.75,80.20527668906931,84.08371570020932,29.730289239869336,388.77130166718837,182.46730816337237,350.02982447813434,390.78506075549694,198.39106867253943,355.26029615507775,35.12433895592163,120.2252171973289,51.17533527607513,35.204062917040346,17.45793791214052,8.720583247187022,4.64635843143715,9000.0,8800.0,350.0,-871.0,-1366.0,-865.0,-946.0,-463.0,-691.0,-133.1875,66.9375,-110.75,98.9375,-27.625,83.625,94878.75,9206.25,8843.769553652668,429.25,940.0,-586.0,762.0,694.0,374.0,1121.0,61.4375,310.5,82.8125,207.125,17.75,113.0,94884.75,8933.35,8540.945045753435,316.5,-871.0,-1366.0,-865.0,-946.0,-463.0,-691.0,-133.1875,-204.125,-110.75,98.9375,-27.625,83.625,94868.75,FrontEntrance,TIESHOES
8994.0078125,8549.080242959666,357.36875,4.78125,-905.5,-285.25,-63.75,79.375,-80.625,-10.724609375,39.3828125,17.8828125,183.5625,3.9140625,103.880859375,94876.7578125,8947.525,8625.274903053385,373.1,10.5,-913.5,-303.0,-32.0,37.0,-148.5,-4.40625,10.09375,25.75,184.59375,4.6875,104.90625,94879.0,125.46592205968226,214.28364975666437,70.28581253388474,468.9651431007942,269.3716703259523,352.18763327558514,447.9590275042804,422.162539405641,385.24736502416795,39.27292471627125,137.63160559394393,47.910521096665526,20.101255778457418,8.759553396472057,6.111744201224361,3.8224107697553826,8900.0,8700.0,350.0,-1245.0,-1005.0,-465.0,-98.0,72.0,-226.0,-133.1875,66.9375,-74.1875,136.125,0.1875,91.875,94879.0,9206.25,8843.769553652668,429.25,1026.0,-379.0,762.0,1016.0,1897.0,1121.0,57.8125,322.5,99.5,212.3125,17.75,113.0,94884.75,8850.15,8130.25,152.6,-1245.0,-1401.0,-865.0,-946.0,-463.0,-745.0,-133.1875,-189.3125,-74.1875,136.125,-12.125,91.875,94870.5,FrontEntrance,TIESHOES
8935.328787878789,8222.292374784387,217.9090909090909,-153.9090909090909,-886.0,-163.54545454545453,54.78787878787879,69.36363636363636,-90.42424242424242,10.159090909090908,-3.0359848484848486,5.787878787878788,159.35795454545453,-14.731060606060606,98.11742424242425,94875.57575757576,8927.8,8130.95,156.8,-115.0,-870.0,-208.0,48.0,24.0,-69.0,4.875,-33.5625,21.0,173.375,-15.875,99.375,94876.0,61.88288716183845,182.92721571107694,120.00851952475178,480.5454169246365,256.0829943592507,403.1532812489788,458.4532253659961,398.0534526120376,416.97377242932123,53.00005318326556,227.3273383414283,63.70598767826281,36.78546888216435,13.147167708743854,9.490573519881133,3.374123062277655,8900.0,8050.0,100.0,-859.0,-1005.0,-1483.0,162.0,-437.0,-1459.0,-80.6875,-470.1875,29.875,115.375,-24.125,77.75,94870.5,9058.25,8606.709104890799,408.0,1026.0,-379.0,731.0,1016.0,1897.0,909.0,235.0625,579.75,99.5,212.3125,5.5,112.9375,94879.5,8850.15,8032.95,94.55,-1245.0,-1401.0,-1483.0,-867.0,-437.0,-1459.0,-80.6875,-470.1875,-217.5,98.5625,-34.625,77.75,94870.5,FrontEntrance,TIESHOES
8976.222727272727,8130.054820936639,166.69242424242424,-205.8181818181818,-932.6060606060606,-93.9090909090909,58.21212121212121,-30.96969696969697,-34.72727272727273,1.0568181818181819,-21.90530303030303,-8.255681818181818,142.83522727272728,-20.25,95.6155303030303,94872.73484848485,8978.5,8123.3,159.05,-271.0,-958.0,-62.0,63.0,-15.0,-27.0,-3.875,-79.375,0.3125,147.5625,-20.625,96.875,94874.5,54.37589380143139,73.32356363697745,52.875824640750466,416.7309124712143,192.63354773279033,416.57797616685485,466.07461564483947,182.69330256752792,428.1270454496592,55.4439389132474,232.50431474974621,65.50008827007628,25.482074822341694,8.104662045699376,8.637094119388651,7.500505033501128,9000.0,8050.0,100.0,-859.0,-1265.0,-1483.0,-957.0,-365.0,-1459.0,-114.6875,-470.1875,-217.5,115.375,-24.125,99.0,94874.5,9058.25,8353.704545454546,230.45,592.0,-564.0,731.0,979.0,308.0,909.0,235.0625,579.75,115.75,183.125,-2.875,112.9375,94878.75,8837.55,8032.95,94.55,-940.0,-1265.0,-1483.0,-957.0,-365.0,-1459.0,-114.6875,-470.1875,-217.5,98.5625,-34.625,77.75,94855.75,FrontEntrance,TIESHOES
8888.748484848486,8352.32540240876,231.02575757575758,-185.6060606060606,-934.6060606060606,-195.9090909090909,34.78787878787879,-11.636363636363637,-59.09090909090909,0.4734848484848485,11.647727272727273,4.111742424242424,157.45075757575756,-15.085227272727273,99.20075757575758,94874.11363636363,8879.2,8414.404545454545,227.2,-257.0,-948.0,-170.0,45.0,-44.0,-80.0,3.9375,24.0,6.1875,153.75,-15.0,100.3125,94876.25,95.7867810269642,178.07494625688116,19.11610545297849,354.05807604420096,158.3029017804829,313.3010097769759,369.5045464517113,165.78597237511875,304.0328275487249,29.973666137045626,204.92380373316848,43.35687142990594,27.657233199224194,4.870360828026036,6.945918976188028,8.193959977546655,8800.0,8550.0,250.0,-940.0,-757.0,-837.0,-957.0,-347.0,-235.0,-114.6875,-465.8125,4.9375,139.5625,-20.625,100.3125,94874.5,9050.75,8572.70003756574,272.5,592.0,-600.0,544.0,834.0,308.0,743.0,47.375,382.375,115.75,204.125,-2.875,109.9375,94881.0,8764.0,8114.9,174.1,-940.0,-1260.0,-837.0,-957.0,-347.0,-744.0,-114.6875,-465.8125,-94.6875,98.6875,-21.375,82.4375,94855.75,FrontEntrance,TIESHOES
8874.472727272727,8347.007195929027,235.73030303030305,-258.969696969697,-916.3636363636364,-220.6060606060606,1.6363636363636365,3.212121212121212,-78.27272727272727,-0.5454545454545454,-24.551136363636363,5.1231060606060606,156.87121212121212,-16.210227272727273,99.21401515151516,94878.56060606061,8905.8,8414.404545454545,234.45,-305.0,-926.0,-219.0,-44.0,22.0,-94.0,3.9375,-55.6875,5.4375,156.5625,-15.625,98.6875,94877.25,72.88154890268564,192.43039919250333,14.845306178395344,247.24917654671836,103.7297625388376,220.92913730905033,231.07599104269497,103.60977197390625,208.48625145427346,23.965985787923096,176.70526892002405,21.30727853038046,34.656439991145206,5.517391231498856,6.570029726061045,3.333090663515189,8950.0,8550.0,250.0,-305.0,-987.0,-635.0,-132.0,-267.0,-502.0,-49.1875,-465.8125,-43.9375,98.6875,-13.625,97.3125,94881.0,8974.7,8572.70003756574,272.5,310.0,-696.0,234.0,593.0,214.0,594.0,40.875,382.375,42.125,204.125,-8.6875,109.9375,94884.0,8764.0,8046.745958264262,207.45,-701.0,-1144.0,-635.0,-385.0,-267.0,-502.0,-49.1875,-465.8125,-43.9375,98.6875,-26.1875,82.4375,94874.75,FrontEntrance,TIESHOES
9030.1375,8123.826018481863,278.96562500000005,-327.53125,-893.0,-132.46875,-0.8125,4.90625,-56.09375,-1.677734375,-41.076171875,2.087890625,132.119140625,-21.185546875,94.50390625,94878.171875,8967.0,8117.619549594272,246.325,-386.0,-909.5,-134.5,-27.5,15.5,-53.5,1.09375,-54.25,8.3125,118.1875,-24.0625,94.84375,94876.0,131.87355502953974,103.18762739266194,66.17751961824031,232.4790638336445,110.24049955409075,167.82229164381187,241.90699859190087,98.5973759302071,175.55632482335653,23.83380856661542,94.73413393626919,25.633652450388894,31.061363561410225,7.194508931390723,4.63145086032148,4.769880932780526,8950.0,8100.0,250.0,-577.0,-987.0,-538.0,62.0,-130.0,-94.0,-49.1875,-193.5,9.75,97.3125,-24.625,97.3125,94873.25,9336.15,8377.95003756574,435.35,259.0,-647.0,194.0,498.0,243.0,298.0,44.125,230.625,42.875,196.3125,-8.6875,102.4375,94884.25,8905.8,7925.955338498052,207.45,-684.0,-1144.0,-538.0,-678.0,-180.0,-639.0,-49.1875,-193.5,-74.1875,97.3125,-29.875,82.0,94873.25,FrontEntrance,TIESHOES
9251.763636363637,7927.020885481915,424.219696969697,-158.4848484848485,-902.3636363636364,-108.63636363636364,117.36363636363636,15.848484848484848,-24.87878787878788,-3.6136363636363638,5.2272727272727275,-11.06060606060606,139.39962121212122,-15.996212121212121,92.9659090909091,94876.02272727272,9336.15,7913.455338498052,449.5,-206.0,-927.0,-131.0,62.0,12.0,-82.0,-5.5,12.1875,0.5,121.0625,-19.75,93.625,94874.5,159.77346867553968,160.47770885373671,102.2819944896476,465.15435080815655,159.41216589822633,239.40274880703362,428.3989684118808,153.17231334597506,277.58475705356165,24.40799776945328,185.25868923759737,37.25406163904262,32.466302164232125,10.819011534988928,5.55848456957715,3.975198322668374,9350.0,7750.0,500.0,-34.0,-1201.0,-709.0,62.0,-240.0,-639.0,-77.75,-812.5625,7.5625,97.3125,-29.875,78.875,94874.75,9418.15,8137.588373498594,540.9,1878.0,-495.0,542.0,1909.0,452.0,761.0,44.125,341.8125,42.875,192.75,-0.5,102.9375,94884.25,8960.1,7725.7,251.4,-736.0,-1201.0,-709.0,-678.0,-240.0,-639.0,-77.75,-812.5625,-107.3125,97.3125,-29.875,78.875,94873.25,FrontEntrance,TIESHOES
9322.665151515153,7885.545054769332,514.7409090909091,-106.18181818181819,-928.4848484848485,-221.63636363636363,62.93939393939394,23.545454545454547,-43.696969696969695,-6.482954545454546,5.4981060606060606,-13.219696969696969,166.11363636363637,-8.231060606060606,98.64204545454545,94878.25,9328.6,7851.455338498052,520.9,-98.0,-931.0,-247.0,32.0,34.0,-87.0,-6.5,3.1875,-15.0,170.9375,-8.0625,99.375,94874.75,61.59967340219896,127.99596382072895,21.419257743272226,451.1277157403332,175.09963613827864,370.2374928831002,427.7385255177761,179.72202336335462,384.1300630034446,25.391881087811452,171.8527680826471,36.30693307025262,17.636641867533523,4.954935711234014,6.856033367548018,4.75205547631759,9350.0,7750.0,500.0,-924.0,-1419.0,-1635.0,-712.0,-492.0,-1393.0,-77.75,-812.5625,-107.3125,109.1875,-22.125,102.25,94884.5,9418.15,8076.49173553719,540.9,1878.0,-495.0,542.0,1909.0,452.0,761.0,40.3125,341.8125,52.875,192.75,-0.5,109.0625,94886.5,9218.5,7725.7,449.5,-924.0,-1419.0,-1635.0,-712.0,-492.0,-1393.0,-77.75,-812.5625,-107.3125,109.1875,-22.125,78.875,94874.25,FrontEntrance,TIESHOES
9275.25,8030.0680526859505,412.265625,-203.03125,-947.03125,-259.34375,-27.15625,-6.1875,-41.53125,1.765625,11.951171875,3.4140625,160.412109375,-10.087890625,102.71875,94882.21875,9272.8,8053.5167355371905,463.275,-152.5,-915.5,-250.0,32.0,15.0,-41.5,0.8125,2.21875,2.40625,162.90625,-10.59375,102.4375,94883.0,31.314216600297105,78.97595617703016,121.33975390207502,253.55211774167915,176.48731735023873,337.5709826788644,238.88073814447998,167.30606249740953,344.0645086153317,18.964140077287126,69.73269768628346,23.42731633597082,11.641192107045356,3.5508567292760147,2.733454626209915,3.4247380403705754,9250.0,8050.0,500.0,-924.0,-1506.0,-257.0,32.0,-23.0,-37.0,-4.1875,-104.5625,-44.75,141.0625,-17.125,100.125,94884.5,9329.9,8112.381404958677,539.2,542.0,-647.0,470.0,593.0,295.0,763.0,40.3125,173.75,52.875,175.0,-4.0,109.0625,94886.5,9218.5,7800.959090909089,179.7,-924.0,-1506.0,-1635.0,-712.0,-492.0,-1393.0,-55.625,-104.5625,-44.75,136.0,-17.125,99.0625,94877.5,FrontEntrance,TIESHOES
9247.1359375,8125.939173489686,234.06562499999998,-243.8125,-918.34375,-258.40625,74.59375,-13.4375,-23.4375,-9.9765625,-20.693359375,10.66796875,151.65234375,-16.150390625,103.87109375,94881.6953125,9245.875,8106.506404958676,174.45,-179.5,-955.0,-257.0,43.0,-21.5,-28.5,-3.46875,-7.1875,4.8125,155.125,-12.40625,102.875,94883.0,50.1506508406213,74.28484617079098,94.1817618443874,361.8422787312441,291.1422010805029,254.9811959385595,368.5790377333627,313.85890989835013,235.90182997827034,26.90981311407936,131.67791740187155,42.14666762760604,23.575515344635015,9.31836196990476,4.467651920693442,4.21916440616982,9250.0,8100.0,150.0,-1403.0,-1506.0,-257.0,-524.0,-57.0,58.0,1.6875,-455.1875,-91.0,141.0625,-12.125,100.875,94878.75,9329.9,8266.93467317806,453.6,542.0,-127.0,470.0,1201.0,766.0,763.0,53.25,202.0,118.625,183.75,-4.25,113.625,94886.5,9142.2,8016.137190082644,147.2,-1403.0,-1506.0,-936.0,-524.0,-889.0,-550.0,-76.375,-455.1875,-91.0,100.875,-34.125,92.5,94873.75,FrontEntrance,TIESHOES
9202.06875,8212.120306843795,173.27500000000003,-273.15625,-876.0,-196.40625,97.125,-1.40625,-19.625,-4.646484375,-6.412109375,4.20703125,138.5,-21.361328125,100.982421875,94879.4140625,9211.1,8194.625879379824,167.77499999999998,-254.0,-951.5,-269.0,20.5,-56.5,-35.5,-3.4375,-18.28125,0.28125,137.53125,-24.71875,102.0,94879.0,33.35933817611478,69.40414053576771,15.096122125426996,352.1999165956744,283.2523097306392,328.78759290764,384.8880650015601,315.20560206408237,273.3599482190516,39.76694204715779,217.39133006619036,57.50660997574294,32.85179866313602,7.8405019842269885,10.22819566129017,4.67560992010668,9200.0,8200.0,150.0,-470.0,-873.0,-936.0,-524.0,-146.0,-550.0,-76.375,-455.1875,-98.375,90.8125,-25.25,107.75,94873.75,9254.2,8377.373140495867,198.3,389.0,-127.0,310.0,1201.0,766.0,678.0,140.6875,743.75,118.625,183.75,-10.0,118.1875,94885.0,9142.2,8090.581404958677,147.2,-1403.0,-1470.0,-936.0,-524.0,-889.0,-550.0,-76.375,-455.1875,-98.375,90.8125,-34.125,81.0625,94873.75,FrontEntrance,TIESHOES
9180.7046875,8288.483172576156,194.784375,-231.53125,-896.46875,-250.6875,56.0,-5.96875,-56.40625,4.09765625,12.7734375,-1.796875,134.677734375,-18.703125,100.5859375,94879.421875,9175.05,8319.288991530633,192.325,-232.0,-894.5,-270.5,3.5,-14.0,-62.0,4.53125,23.65625,1.3125,134.46875,-17.90625,102.875,94879.75,25.89575055242443,72.36431362891128,16.808813152533233,276.61945262866215,149.3210406656874,367.3214674966207,313.4352842603315,135.2835694133837,271.4762342565718,32.916541801476455,263.205622633306,44.67426067135592,30.232358347868622,5.869850179436631,10.243971353568982,3.273449830121516,9150.0,8350.0,200.0,-470.0,-884.0,-959.0,469.0,-175.0,-611.0,-60.0625,-530.875,-98.375,90.8125,-25.25,81.0625,94875.25,9230.1,8381.473140495867,239.75,286.0,-410.0,310.0,566.0,466.0,678.0,140.6875,743.75,108.4375,180.8125,-7.625,118.1875,94884.5,9138.85,8169.425879379824,164.5,-855.0,-1130.0,-959.0,-486.0,-175.0,-611.0,-60.0625,-530.875,-98.375,90.8125,-27.625,81.0625,94873.75,FrontEntrance,TIESHOES
9154.35606060606,8341.910102747426,235.4212121212121,-191.6969696969697,-881.5151515151515,-351.3636363636364,38.42424242424242,22.636363636363637,-63.0,4.5227272727272725,4.018939393939394,-2.625,159.375,-13.460227272727273,106.42234848484848,94880.29545454546,9158.9,8346.395301177889,245.15,-125.0,-884.0,-375.0,38.0,8.0,-69.0,5.375,31.3125,-0.625,169.0625,-12.25,105.875,94880.0,29.227998556541866,51.40089879924637,34.44382662009041,261.0591988477523,103.02187911195163,328.17514551891895,266.4815929739602,95.39123983030954,266.29236752111393,22.2006113229072,200.16378699024824,23.951035460066752,29.390948961531933,6.058508233636846,5.218610362630148,1.9480103485818083,9150.0,8350.0,250.0,-855.0,-901.0,-959.0,-486.0,8.0,-611.0,-60.0625,-530.875,-88.0625,188.125,-9.8125,91.5625,94877.75,9194.9,8435.490755723342,278.95,246.0,-620.0,577.0,535.0,270.0,873.0,45.5625,333.8125,37.25,195.75,-5.8125,112.0625,94884.5,9094.1,8242.17678778772,181.1,-855.0,-1130.0,-959.0,-486.0,-162.0,-611.0,-60.0625,-530.875,-88.0625,96.5,-24.5625,91.5625,94877.75,FrontEntrance,TIESHOES
9176.09696969697,8299.109462304714,238.6969696969697,-92.93939393939394,-957.6666666666666,-255.15151515151516,18.818181818181817,-28.21212121212121,-18.151515151515152,11.967803030303031,16.75378787878788,-9.240530303030303,174.1098484848485,-6.651515151515151,104.62689393939394,94879.47727272728,9176.65,8321.895301177889,249.45,-84.0,-897.0,-280.0,38.0,10.0,-45.0,9.75,0.75,-4.25,179.0625,-8.3125,104.125,94880.0,54.97625046809129,116.08510361956182,31.18984695426226,168.63809982361997,191.46551038415944,242.75709582988006,176.05191964045977,185.3017400039321,218.4316427987428,18.34831529389151,76.73259157752719,30.573530254928905,16.154361216230456,7.499512196099873,5.13935406136677,2.097583837310312,9200.0,8300.0,250.0,-609.0,-1404.0,-250.0,-43.0,8.0,-96.0,28.8125,-116.75,-85.6875,188.125,-9.8125,103.625,94877.75,9279.55,8435.490755723342,278.95,241.0,-728.0,577.0,389.0,246.0,873.0,45.5625,204.0,58.875,195.75,10.25,112.0625,94882.5,9094.1,7983.581818181818,186.0,-609.0,-1404.0,-668.0,-304.0,-463.0,-405.0,-38.125,-116.75,-85.6875,130.25,-20.6875,91.5625,94875.5,FrontEntrance,TIESHOES
9034.651515151516,8127.530859686269,90.35757575757576,-198.87878787878788,-955.5454545454545,-187.84848484848484,11.818181818181818,-43.75757575757576,20.09090909090909,-5.929924242424242,16.727272727272727,4.077651515151516,122.27462121212122,-13.551136363636363,103.08712121212122,94874.92424242424,9001.4,8168.0545454545445,118.45,-209.0,-955.0,-242.0,50.0,-24.0,-1.0,-6.75,-2.25,-3.25,126.5625,-12.1875,101.9375,94875.75,155.3079046024624,95.12580268965065,64.52682838509416,410.7572091253966,151.11338683855305,373.7343743566513,456.39069437170923,153.30403417372744,409.8875885255282,48.427516001223616,159.00481273593238,54.03529398161401,20.300801555538353,6.572731134525538,7.190538409985269,7.861716189191386,8900.0,8200.0,100.0,-1491.0,-1471.0,-361.0,256.0,-74.0,55.0,-112.4375,-26.875,-84.75,78.9375,-18.9375,98.9375,94881.5,9276.4,8241.252892561983,203.75,1144.0,-716.0,1393.0,1339.0,158.0,1538.0,131.125,393.125,207.8125,156.0625,-0.5625,115.25,94883.25,8848.9,7969.785161532683,-31.45,-1491.0,-1471.0,-723.0,-1213.0,-521.0,-789.0,-112.4375,-264.8125,-84.75,78.9375,-26.375,86.625,94863.0,FrontEntrance,TIESHOES
9229.35,8043.408437492885,60.45454545454545,-42.75757575757576,-924.5757575757576,-301.72727272727275,21.03030303030303,-11.666666666666666,11.272727272727273,-6.384469696969697,32.69318181818182,-0.11553030303030302,162.32386363636363,-1.3825757575757576,107.30113636363636,94876.68939393939,9245.5,8034.607475582268,41.3,-15.0,-889.0,-295.0,47.0,1.0,-1.0,-6.875,7.25,-3.25,171.625,-0.5625,106.6875,94876.0,70.06042035272131,46.70955282891854,71.55927543350465,375.62123794314317,136.3350721345736,246.60409474591972,347.0863081468791,158.77453878587292,245.93968680441662,35.60719511623919,149.18538596542695,56.88419208259601,51.297285385545855,11.124755939823755,3.3769689910867355,4.903375074498393,9250.0,8050.0,0.0,-1007.0,-886.0,-722.0,-607.0,-34.0,-197.0,-106.3125,-264.8125,-84.75,78.9375,0.4375,103.9375,94881.75,9313.2,8192.939706987228,180.25,678.0,-673.0,271.0,876.0,353.0,578.0,80.875,349.625,191.9375,230.0,17.625,115.25,94881.75,9014.6,7964.814049586776,-42.1,-1007.0,-1233.0,-722.0,-607.0,-427.0,-478.0,-106.3125,-264.8125,-84.75,78.9375,-20.0,101.9375,94867.75,FrontEntrance,TIESHOES
9317.225757575758,7983.645484142704,106.45757575757575,52.39393939393939,-930.4545454545455,-288.42424242424244,12.727272727272727,16.87878787878788,-37.42424242424242,4.46780303030303,-1.5056818181818181,-1.196969696969697,179.99242424242425,4.903409090909091,104.26893939393939,94879.20454545454,9305.75,8014.114049586778,127.1,53.0,-889.0,-234.0,1.0,35.0,11.0,6.1875,-13.0,-6.5625,180.25,4.25,104.1875,94879.75,52.47122890393743,79.48650328271468,65.95241670279714,411.71804212606617,187.49218165517777,309.11749690682245,396.887757490017,176.30757172760576,305.5031741143443,30.876459357954698,118.80010082472957,50.18780676181768,33.10156068406207,5.167178071815628,2.88954730115067,3.1890036560314288,9300.0,8050.0,150.0,-101.0,-1365.0,-1285.0,-1319.0,-405.0,-197.0,-106.3125,-182.4375,-83.75,137.6875,-0.9375,103.9375,94883.25,9416.45,8107.464049586777,180.25,678.0,-507.0,420.0,703.0,406.0,638.0,80.875,280.75,191.9375,230.0,17.625,112.3125,94883.25,9224.6,7838.759504132232,-42.1,-1239.0,-1365.0,-1285.0,-1319.0,-405.0,-1218.0,-106.3125,-182.4375,-83.75,137.6875,-1.1875,98.9375,94873.25,FrontEntrance,TIESHOES
7928.161111111112,6421.394444444446,1084.7333333333333,-319.25,-904.8571428571429,164.57142857142858,-1.0714285714285714,5.642857142857143,-5.785714285714286,-0.3125,-0.6986607142857143,-0.6808035714285714,70.92633928571429,-18.908482142857142,79.32142857142857,94879.625,7921.8,6426.55,1074.4,-322.0,-904.0,163.5,-4.5,6.0,-7.0,-0.375,0.125,-0.625,70.875,-19.0,79.1875,94880.0,24.273581031877384,34.82666403458392,202.43131396846684,11.007152556742701,6.415919354544692,8.958457917184646,13.920218632352253,4.975601848682604,8.803859182650328,0.9513635438635394,2.4836883118905426,3.205009970919042,0.44716622258584454,0.3326738888701348,0.24574756373027398,3.834842698014942,7900.0,6450.0,850.0,-316.0,-906.0,160.0,6.0,10.0,-10.0,-1.4375,-0.75,-3.8125,70.6875,-19.0,79.1875,94875.75,7966.55,6465.8,1391.75,-293.0,-893.0,187.0,31.0,13.0,14.0,1.75,1.8125,6.25,71.875,-18.25,79.75,94883.5,7897.8,6366.45,832.15,-333.0,-920.0,147.0,-22.0,-6.0,-20.0,-1.75,-6.875,-6.1875,70.1875,-19.375,78.9375,94868.75,undefined,UNDEFINED
7905.033333333333,6445.520370370372,901.8259259259258,-313.85714285714283,-906.3428571428572,159.05714285714285,1.457142857142857,5.8,-7.6,-0.4107142857142857,-0.6767857142857143,-0.21964285714285714,70.15,-18.748214285714287,79.56071428571428,94875.91428571429,7908.45,6448.65,823.7,-316.0,-906.0,160.0,0.0,6.0,-9.0,-0.3125,-0.25,-0.625,70.3125,-18.75,79.5625,94875.75,29.352958178796115,29.28438235403898,173.6477493100784,13.390389128341393,6.282294715369242,6.38906629072096,17.434487217518477,5.362176906487755,7.2889925068356245,1.1003514765059115,3.0359929432165194,3.4927502196175806,1.0250986322702575,0.354684289725597,0.2113972871756165,9.572852020078411,7900.0,6450.0,800.0,-316.0,-908.0,160.0,6.0,6.0,-10.0,0.375,-0.75,-3.8125,70.5625,-19.0,79.5,94859.5,7966.55,6483.5,1391.75,-284.0,-892.0,172.0,33.0,20.0,7.0,2.0,3.4375,6.25,71.875,-18.0625,79.9375,94887.5,7853.8,6366.45,790.4,-333.0,-920.0,147.0,-29.0,-6.0,-22.0,-2.75,-6.875,-6.1875,68.3125,-19.375,79.125,94859.5,Hallway,UNDEFINED
7861.208571428573,6477.438571428572,825.92,-311.9428571428571,-907.2,155.45714285714286,0.2857142857142857,6.514285714285714,-7.228571428571429,-0.2732142857142857,0.5714285714285714,-0.21785714285714286,69.85,-18.560714285714287,79.84464285714286,94873.68571428572,7854.95,6482.95,830.0,-312.0,-908.0,155.0,0.0,6.0,-9.0,-0.0625,1.375,-0.125,69.9375,-18.625,79.875,94873.75,41.687361404151446,27.717249051050928,23.59038064176857,11.651667028276044,5.334681202228655,9.42569347469944,13.703952689926037,5.049003562564589,9.175048370719471,1.363174896452883,2.7408413187293026,2.658633075836674,0.7571958717764473,0.27094508575687126,0.25154459818081876,9.754776894881172,7850.0,6450.0,850.0,-316.0,-906.0,160.0,0.0,6.0,-12.0,-1.625,0.9375,0.1875,70.3125,-18.625,80.0,94859.5,7917.45,6526.4,861.05,-284.0,-892.0,176.0,33.0,20.0,16.0,2.0,4.5,5.5,71.3125,-18.0625,80.5,94887.5,7792.0,6439.0,790.4,-333.0,-917.0,133.0,-29.0,-4.0,-23.0,-3.6875,-5.8125,-6.75,68.3125,-19.0,79.375,94859.5,Hallway,UNDEFINED
7904.867647058823,6421.983823529413,756.9699319397181,-307.55882352941177,-909.6470588235294,155.02941176470588,-0.20588235294117646,6.823529411764706,-4.294117647058823,0.0625,-0.27941176470588236,-0.45588235294117646,70.59558823529412,-18.25551470588235,80.05882352941177,94870.16176470589,7889.325,6441.1,783.15,-308.0,-909.5,152.0,0.0,6.5,-6.0,0.15625,0.0625,-0.1875,70.53125,-18.25,80.03125,94869.25,85.67465139272883,84.64764286448481,94.93520763047258,7.447558788442584,4.947496170799054,11.540404105412472,7.0400560077175784,4.641516133146609,11.998811587023578,1.421476904810307,2.549752814729505,1.9035409470917357,0.4680197074099168,0.22580225611825205,0.21973058166877704,8.536437575968886,7850.0,6500.0,850.0,-312.0,-912.0,150.0,0.0,3.0,-12.0,0.0,-2.4375,0.625,70.1875,-18.0625,80.0,94868.0,8043.35,6526.4,861.05,-293.0,-898.0,185.0,13.0,17.0,32.0,2.8125,4.5,2.6875,71.3125,-17.875,80.5625,94881.75,7792.0,6280.2,607.5776859504133,-324.0,-920.0,133.0,-18.0,-4.0,-23.0,-3.6875,-5.625,-6.75,69.875,-18.6875,79.6875,94855.5,Hallway,UNDEFINED
7988.657352941176,6335.877941176471,663.6732762767512,-307.2647058823529,-908.9705882352941,156.7941176470588,-0.7941176470588235,7.4411764705882355,-3.411764705882353,0.27205882352941174,0.02022058823529412,0.1948529411764706,70.62867647058823,-18.209558823529413,79.96323529411765,94866.5,7985.925,6337.95,662.502476079006,-307.0,-909.0,153.0,-1.0,7.0,-6.0,0.5,0.28125,0.4375,70.625,-18.1875,79.96875,94866.875,36.26736602284891,36.66168876232412,41.351134632863484,9.133052938173496,6.156963508377628,10.391661609966079,9.210598018832851,6.335045270080951,12.526620495323872,1.447706057792213,2.7269922775256425,1.5492059233264877,0.4235998483838281,0.2080769366999927,0.2616226531781441,8.502673376383132,8000.0,6350.0,650.0,-307.0,-907.0,152.0,-2.0,5.0,-12.0,-0.25,-2.4375,0.625,70.0625,-18.375,79.625,94869.25,8043.35,6431.45,774.05,-291.0,-898.0,185.0,20.0,17.0,32.0,2.8125,5.6875,2.6875,71.3125,-17.875,80.5625,94878.5,7899.25,6280.2,607.5776859504133,-326.0,-924.0,137.0,-21.0,-14.0,-28.0,-3.4375,-5.625,-3.625,70.0,-18.6875,79.625,94855.5,Hallway,UNDEFINED
8002.722058823529,6333.536764705881,671.8418180832012,-313.97058823529414,-909.6470588235294,147.7941176470588,-20.441176470588236,12.911764705882353,3.7058823529411766,-2.014705882352941,0.6213235294117647,-4.582720588235294,72.3529411764706,-17.446691176470587,81.01838235294117,94868.17647058824,8015.025,6337.875,675.527476079006,-308.5,-906.5,152.0,-5.0,11.0,-4.0,-0.5625,1.65625,-1.53125,71.0,-18.28125,80.125,94868.75,27.446885872857194,22.537821104196713,29.233253505180578,18.823720197339743,21.820038542505717,24.77997653503023,43.13628239869583,17.701853433278167,25.073865921077353,5.0182917972541805,7.773606842817709,8.001283049754617,2.574270010574654,1.8320285702032593,1.8471754525237762,6.7362456418685905,8000.0,6350.0,700.0,-307.0,-899.0,152.0,-5.0,7.0,-15.0,-1.125,1.3125,-6.25,70.9375,-18.375,79.625,94868.75,8041.9,6367.4,725.558367225289,-290.0,-868.0,192.0,20.0,57.0,73.0,7.625,11.375,2.1875,77.6875,-12.0625,85.3125,94878.5,7944.4,6281.3,607.5776859504133,-380.0,-975.0,79.0,-143.0,-22.0,-28.0,-17.9375,-20.0,-28.1875,70.0,-18.8125,79.625,94857.25,Hallway,UNDEFINED
8090.033823529411,6395.667647058823,610.4783133183606,-292.29411764705884,-927.7941176470588,159.76470588235293,-36.705882352941174,2.676470588235294,11.0,-0.8198529411764706,0.3639705882352941,-3.744485294117647,75.39338235294117,-15.102941176470589,80.9283088235294,94871.85294117648,8029.75,6363.575000000001,645.4795454545455,-301.5,-911.0,148.0,-38.0,15.0,8.0,-1.28125,1.28125,-5.375,75.59375,-16.1875,80.8125,94871.75,116.34606341778992,90.92049714094456,90.13148801118079,66.84696652837992,122.32217257612503,50.757330459406745,83.75452205313678,110.31874496293038,50.6066231142753,14.259439695593366,18.595980230318094,24.708194565858566,2.7241175859539153,3.1150174783417075,2.5267570184973955,4.121321889594048,8000.0,6350.0,700.0,-306.0,-942.0,119.0,-103.0,21.0,-23.0,-1.125,-46.5625,-13.5625,77.0625,-18.625,80.125,94868.75,8374.6,6655.35,725.558367225289,-46.0,-740.0,267.0,173.0,174.0,121.0,33.25,57.625,72.9375,81.25,-10.125,85.3125,94878.25,7973.65,6313.15,463.5590909090909,-402.0,-1344.0,79.0,-230.0,-390.0,-97.0,-26.4375,-46.5625,-53.9375,70.9375,-18.8125,76.625,94857.25,Hallway,UNDEFINED
