MEAN_POS_X,MEAN_POS_Y,MEAN_POS_Z,MEAN_ACC_X,MEAN_ACC_Y,MEAN_ACC_Z,MEAN_LINACC_X,MEAN_LINACC_Y,MEAN_LINACC_Z,MEAN_GYRO_X,MEAN_GYRO_Y,MEAN_GYRO_Z,MEAN_Heading,MEAN_Roll,MEAN_Pitch,MEAN_Pressure,MEDIAN_POS_X,MEDIAN_POS_Y,MEDIAN_POS_Z,MEDIAN_ACC_X,MEDIAN_ACC_Y,MEDIAN_ACC_Z,MEDIAN_LINACC_X,MEDIAN_LINACC_Y,MEDIAN_LINACC_Z,MEDIAN_GYRO_X,MEDIAN_GYRO_Y,MEDIAN_GYRO_Z,MEDIAN_Heading,MEDIAN_Roll,MEDIAN_Pitch,MEDIAN_Pressure,STD_POS_X,STD_POS_Y,STD_POS_Z,STD_ACC_X,STD_ACC_Y,STD_ACC_Z,STD_LINACC_X,STD_LINACC_Y,STD_LINACC_Z,STD_GYRO_X,STD_GYRO_Y,STD_GYRO_Z,STD_Heading,STD_Roll,STD_Pitch,STD_Pressure,MODE_POS_X,MODE_POS_Y,MODE_POS_Z,MODE_ACC_X,MODE_ACC_Y,MODE_ACC_Z,MODE_LINACC_X,MODE_LINACC_Y,MODE_LINACC_Z,MODE_GYRO_X,MODE_GYRO_Y,MODE_GYRO_Z,MODE_Heading,MODE_Roll,MODE_Pitch,MODE_Pressure,MAX_POS_X,MAX_POS_Y,MAX_POS_Z,MAX_ACC_X,MAX_ACC_Y,MAX_ACC_Z,MAX_LINACC_X,MAX_LINACC_Y,MAX_LINACC_Z,MAX_GYRO_X,MAX_GYRO_Y,MAX_GYRO_Z,MAX_Heading,MAX_Roll,MAX_Pitch,MAX_Pressure,MIN_POS_X,MIN_POS_Y,MIN_POS_Z,MIN_ACC_X,MIN_ACC_Y,MIN_ACC_Z,MIN_LINACC_X,MIN_LINACC_Y,MIN_LINACC_Z,MIN_GYRO_X,MIN_GYRO_Y,MIN_GYRO_Z,MIN_Heading,MIN_Roll,MIN_Pitch,MIN_Pressure,LOCATION,ACTIVITY,Peaks_Acc_X,Peaks_Acc_Y,Peaks_Acc_Z
4790.13125,7235.0421875,706.6953125,-862.125,275.3125,148.78125,-2.0,-22.625,8.0,-2.548828125,31.916015625,11.625,338.62890625,-61.28125,-61.453125,93654.8828125,4796.4,7235.299999999999,706.5,-847.0,232.5,93.5,-5.5,-35.0,9.0,-2.4375,35.65625,11.21875,346.59375,-61.34375,-58.53125,93648.75,34.4553375002781,19.212752440782882,21.331252097057643,137.37322601513895,169.71065271561858,298.16673559896304,105.26556279086441,48.99358088302932,92.36428579447026,22.235280415479135,45.33008587936265,22.644250854779752,13.801862761982704,8.91312517601014,42.56542935540152,11.554566262395866,4800.0,7250.0,700.0,-715.0,231.0,-143.0,-267.0,-35.0,-174.0,-43.125,-131.4375,-28.0,347.375,-76.25,-14.0,93660.75,4837.8,7262.85,757.2,-557.0,527.0,726.0,267.0,99.0,267.0,38.5625,102.875,52.9375,352.9375,-49.625,-14.0,93674.75,4722.75,7194.4,671.75,-1199.0,-21.0,-320.0,-267.0,-133.0,-174.0,-43.125,-131.4375,-28.0,314.75,-76.25,-122.6875,93642.0,LivingRoom ,EATING,0,0,1
4746.740625,7229.0578125,703.096875,-855.8125,375.0625,7.3125,-15.21875,-19.75,5.4375,0.541015625,-5.30859375,1.689453125,223.591796875,-60.640625,-83.576171875,93655.4375,4723.7,7227.275,708.3,-834.5,404.5,-83.0,-15.5,-28.5,20.0,0.40625,24.1875,-4.96875,319.0,-60.0,-96.03125,93650.0,48.548147762913445,25.25879951868263,19.206399880533773,123.35248144005598,103.93823770905738,296.2107398784771,107.58664456478638,44.31849537448293,68.57251283224957,18.706836132506684,81.76541844572087,28.23697460730413,150.8668108064762,8.202407322676482,34.02389879344521,8.461011149822422,4700.0,7250.0,700.0,-798.0,270.0,-143.0,82.0,-79.0,-4.0,-36.1875,-228.9375,-36.9375,4.5,-75.875,-129.0,93648.0,4828.25,7262.85,729.7,-559.0,527.0,599.0,205.0,92.0,113.0,36.0,91.375,52.9375,356.5625,-50.5625,-31.3125,93674.75,4697.05,7186.15,650.4,-1188.0,160.0,-496.0,-364.0,-82.0,-145.0,-36.1875,-228.9375,-36.9375,4.5,-75.875,-129.0,93648.0,LivingRoom ,EATING,0,0,2
4738.7171875,7230.9,705.4875,-730.0625,284.71875,406.90625,-16.75,-17.625,-12.59375,-1.658203125,-42.822265625,-3.619140625,76.00390625,-50.2109375,-44.923828125,93652.296875,4719.325000000001,7226.675,710.35,-789.0,298.5,409.5,9.0,-19.5,-17.0,3.15625,-24.34375,-3.34375,31.84375,-55.28125,-34.4375,93650.0,43.67842829459734,30.156668871401514,31.198692073495227,228.57270142934757,156.09865250704803,446.41181330297655,126.60632405343179,119.57579591096994,136.85543570592316,24.89270819869694,80.25828565747693,22.21519091756315,116.06726330565877,15.592342888547323,34.90823127111385,7.070622292045742,4700.0,7200.0,700.0,-1188.0,61.0,-496.0,82.0,-36.0,60.0,-63.4375,-86.6875,-36.9375,32.4375,-70.0,-129.0,93650.0,4822.4,7287.5,781.9,-309.0,470.0,1261.0,205.0,169.0,309.0,38.6875,91.375,51.625,356.5625,-27.3125,-13.1875,93661.25,4697.05,7186.15,648.65,-1188.0,-119.0,-496.0,-364.0,-315.0,-297.0,-63.4375,-228.9375,-36.9375,4.5,-70.0,-129.0,93643.75,LivingRoom ,EATING,0,0,3
4810.4359375,7232.387500000001,765.925,-574.40625,210.96875,729.28125,-21.5,-35.0,-29.03125,0.26171875,-14.275390625,3.19921875,31.650390625,-36.109375,-20.037109375,93654.3359375,4820.25,7231.049999999999,782.825,-549.5,263.0,690.5,0.5,1.5,-54.5,5.375,-5.15625,3.53125,31.84375,-32.21875,-17.9375,93650.0,49.82165488888276,29.515425163474195,66.38962584135294,178.69362126908186,198.22429205240567,275.3354826828419,93.08164990150904,165.2374635330581,202.7622927938828,36.93393130480459,53.0932349515901,17.326533975723336,2.0504510822931175,10.847004659381556,7.40362915338667,11.833626461139215,4850.0,7200.0,850.0,-1096.0,61.0,284.0,-202.0,-393.0,-360.0,-65.875,-151.0,0.1875,29.6875,-30.625,-19.3125,93653.0,4875.0,7287.5,842.3,-309.0,470.0,1278.0,147.0,176.0,447.0,60.375,64.6875,51.625,35.6875,-27.3125,-12.4375,93677.25,4716.95,7193.2,648.65,-1096.0,-209.0,284.0,-202.0,-393.0,-360.0,-65.875,-151.0,-34.0,27.1875,-68.5,-42.5625,93643.75,LivingRoom ,EATING,0,0,2
4816.09393939394,7192.227272727273,801.7727272727273,-609.2727272727273,217.45454545454547,702.939393939394,-20.303030303030305,-28.21212121212121,-36.36363636363637,7.71969696969697,11.303030303030303,-2.039772727272727,34.628787878787875,-37.59469696969697,-18.939393939393938,93660.39393939394,4826.35,7195.1,804.25,-615.0,254.0,682.0,-6.0,16.0,-59.0,10.5,14.125,1.25,33.75,-35.9375,-18.125,93661.0,47.580068630375195,28.45739713509557,30.197682265441262,160.74499850836585,162.30085699656112,225.40615278230808,122.28718372352151,129.96411946566192,204.02677798848765,37.6673904721767,52.23135582718419,18.041245186417164,4.263619589090176,6.7182071221831965,4.114347183480281,9.84826886418177,4850.0,7200.0,800.0,-945.0,-209.0,333.0,-131.0,41.0,-13.0,-65.875,-89.5,1.25,29.6875,-43.25,-22.3125,93653.0,4875.0,7239.05,842.3,-247.0,437.0,1278.0,314.0,176.0,447.0,60.375,165.1875,41.25,41.1875,-29.0625,-12.4375,93677.25,4695.0,7138.05,747.3,-945.0,-209.0,333.0,-272.0,-393.0,-360.0,-65.875,-89.5,-34.0,28.8125,-52.0,-27.625,93650.0,LivingRoom ,EATING,0,0,1
4745.675757575757,7225.24696969697,765.6924242424243,-671.2121212121212,248.87878787878788,622.7575757575758,-21.03030303030303,-22.424242424242426,-43.15151515151515,-2.797348484848485,-0.3087121212121212,-0.2689393939393939,37.63636363636363,-42.746212121212125,-22.301136363636363,93655.70454545454,4720.3,7229.75,753.65,-686.0,254.0,578.0,-6.0,-17.0,-105.0,4.3125,8.3125,1.5,38.3125,-41.3125,-22.3125,93652.75,52.61187799764799,57.26955443802841,23.18501375219334,162.48399105291836,126.23607784023096,273.7984010069076,129.32770508684635,95.44141865007768,243.36535307179116,44.91398308476799,70.06577361085778,18.665195489683118,2.418064267370982,5.916284865508801,4.336562582911881,6.244827404995419,4700.0,7300.0,750.0,-730.0,328.0,17.0,56.0,41.0,-13.0,-93.375,-152.625,-33.4375,33.5625,-45.0,-22.3125,93650.75,4837.95,7303.4,823.35,-247.0,472.0,1286.0,314.0,150.0,568.0,61.1875,165.1875,41.25,41.1875,-29.0625,-15.3125,93666.0,4684.65,7138.05,733.1,-945.0,0.0,17.0,-272.0,-252.0,-495.0,-93.375,-152.625,-33.4375,33.0625,-54.8125,-32.0625,93649.25,LivingRoom ,EATING,0,0,2
4724.065625000001,7241.160937500001,761.9359375,-660.625,221.125,634.0,-31.84375,-36.125,-29.4375,-6.833984375,2.931640625,-3.505859375,38.271484375,-43.13671875,-21.26171875,93644.8828125,4721.325,7247.65,766.9000000000001,-681.0,208.0,618.5,-6.0,-26.5,-69.5,1.09375,10.25,0.75,38.1875,-41.0,-21.03125,93649.25,22.887246193162877,44.85782510651057,14.293948834604466,200.67768251119634,136.83867355629096,286.0080080087991,135.58263980960814,96.99908546293187,245.05640397474264,46.210752226232636,76.58178305452435,20.700408087856147,2.722350432765819,5.9538386721908925,4.848237060599051,10.006647865898788,4700.0,7200.0,750.0,-730.0,330.0,17.0,-115.0,-134.0,-495.0,-93.375,-152.625,-58.375,36.1875,-41.0,-25.4375,93649.25,4756.5,7303.4,791.7,-161.0,472.0,1286.0,274.0,150.0,568.0,61.1875,163.75,23.25,43.375,-33.1875,-12.125,93661.0,4684.65,7165.1,733.1,-1116.0,-26.0,17.0,-234.0,-252.0,-495.0,-93.375,-152.625,-58.375,33.0625,-56.625,-32.0625,93626.25,LivingRoom ,EATING,0,0,2
4743.0046875,7182.485937500001,795.03125,-453.25,20.25,752.78125,-42.84375,-29.84375,-33.5,-14.322265625,-16.462890625,-2.345703125,39.654296875,-29.267578125,-6.22265625,93639.140625,4747.1,7168.85,777.475,-469.0,77.0,746.0,-30.5,-31.0,-45.0,-10.09375,-5.78125,1.125,39.09375,-36.8125,-11.90625,93637.75,11.714241121834721,29.87500906836145,34.10746240832765,371.28052171700523,230.53164361899954,243.0058720085693,178.94711948668143,88.0729570647485,179.1760712710518,38.79937381727508,89.66695189950046,22.717730039751377,2.6320941186334426,19.43137761669021,15.144032426007271,8.460043063071975,4750.0,7150.0,750.0,-161.0,-411.0,738.0,-221.0,-77.0,-136.0,-94.6875,-272.5,-58.375,37.6875,-56.625,-25.4375,93626.25,4756.5,7261.25,868.7,298.0,370.0,1216.0,274.0,131.0,438.0,49.875,163.75,43.125,44.625,-1.1875,17.6875,93652.0,4714.85,7151.2,766.6,-1116.0,-411.0,338.0,-411.0,-173.0,-526.0,-94.6875,-272.5,-58.375,36.1875,-56.625,-25.4375,93626.25,LivingRoom ,EATING,4,0,0
4740.8609375,7162.535937499999,868.0421875,-229.28125,-264.34375,845.0625,-34.21875,-17.0625,-61.34375,-13.685546875,-19.76953125,2.658203125,38.130859375,-15.26171875,13.998046875,93646.046875,4742.025,7162.125,878.325,-135.5,-314.0,838.5,-35.5,-12.0,-45.0,-9.875,-5.78125,2.25,37.59375,-7.4375,17.0625,93637.75,10.9614995911276,11.903050804209029,59.30270639172435,339.93758766583096,183.92961651307044,191.23165102785342,228.7068463614079,84.02147862878718,158.95477331517108,32.59886283227391,103.32617283787091,16.65102244553177,2.76527827811111,15.778251970895143,10.314772286010388,11.348660127677997,4750.0,7150.0,900.0,-63.0,-525.0,376.0,-221.0,-182.0,-73.0,-94.6875,-272.5,2.25,37.5,-29.4375,-11.6875,93635.25,4756.05,7191.1,943.75,368.0,154.0,1213.0,419.0,131.0,186.0,44.5,284.5,43.125,44.625,-1.1875,25.5,93666.25,4714.85,7145.6,766.85,-985.0,-525.0,376.0,-745.0,-182.0,-526.0,-94.6875,-272.5,-23.9375,34.6875,-52.9375,-11.6875,93635.25,LivingRoom ,EATING,4,0,0
4735.1234375,7147.2296875,916.4125,-271.90625,-375.96875,836.09375,-11.59375,-28.65625,-38.84375,-0.17578125,10.78515625,3.46875,36.556640625,-17.216796875,21.830078125,93650.515625,4739.6,7148.35,918.0,-265.5,-365.0,852.5,-11.0,-4.5,-23.0,-7.3125,1.34375,2.375,36.40625,-16.25,22.59375,93648.25,11.510773245340454,24.159289468879894,17.09635878984082,288.51201790533173,113.41146450980193,174.80115142733638,206.200162600449,85.35603211104612,161.2877831453315,25.763421560402104,99.97555136805082,18.361814997434212,1.2938244461010269,12.230893431256938,3.540172476455693,11.57425840653691,4750.0,7150.0,900.0,-63.0,-673.0,395.0,-745.0,-244.0,-73.0,-14.875,-149.9375,2.5,35.3125,-42.0625,15.8125,93637.25,4753.55,7191.1,943.75,368.0,-179.0,1247.0,419.0,89.0,380.0,50.0625,284.5,59.125,38.6875,-1.25,28.1875,93666.25,4716.65,7109.95,885.3,-985.0,-673.0,395.0,-745.0,-244.0,-434.0,-37.25,-149.9375,-23.5625,34.625,-42.0625,15.8125,93637.25,LivingRoom ,EATING,3,0,0
4721.1859375,7114.384375,909.4359374999999,-390.1875,-355.875,781.1875,14.03125,-38.59375,-12.34375,0.189453125,8.24609375,5.1171875,36.96875,-23.84375,22.697265625,93659.8984375,4719.05,7114.275,914.15,-329.0,-351.5,851.5,19.5,-4.5,-23.0,-4.28125,-11.90625,4.1875,37.0,-19.4375,22.09375,93661.625,13.333478567337423,22.945399558236044,24.323562300035523,357.2437893092055,124.00435736360755,262.78771482798834,193.41356065061308,97.31454135779205,172.7322390617638,25.955633888195727,105.90283289171697,19.74353424940069,1.1067060978854206,17.054259944602244,4.819789446251734,16.33234216839842,4700.0,7100.0,900.0,-1153.0,-358.0,305.0,-438.0,-296.0,-434.0,-38.625,-216.375,-20.75,35.6875,-60.9375,22.0625,93648.25,4747.0,7158.45,944.9,132.0,-179.0,1247.0,492.0,79.0,380.0,50.0625,188.625,59.125,38.6875,-4.5,33.75,93684.25,4704.7,7082.9,865.6,-1153.0,-673.0,305.0,-438.0,-296.0,-434.0,-38.625,-216.375,-30.5,34.625,-60.9375,15.8125,93637.25,LivingRoom ,EATING,2,0,0
4728.276562499999,7105.2125,889.075,-336.75,-194.0625,812.84375,23.09375,-25.96875,-31.5625,9.400390625,-5.24609375,0.07421875,38.37109375,-21.85546875,12.6171875,93669.8125,4718.275,7103.45,872.25,-239.0,-246.5,823.0,22.0,-2.0,-54.0,15.78125,-18.1875,0.8125,37.8125,-15.03125,16.21875,93669.0,23.54789554454099,19.07169833599922,34.64187518205434,376.1597121333677,199.539136350451,265.63886586200374,237.6680199387644,100.71662078134325,172.61628852607197,27.4454915219752,100.47550874333936,15.934146844443296,1.965615303966034,16.402298391235327,12.198291851433213,13.185555390947396,4700.0,7100.0,850.0,-1153.0,-358.0,1067.0,-527.0,-337.0,13.0,-38.625,-216.375,-33.375,37.75,-11.125,22.0625,93684.25,4782.75,7149.15,960.95,472.0,202.0,1349.0,609.0,128.0,357.0,57.5625,174.75,38.125,43.125,-4.5,33.75,93684.25,4704.7,7082.9,844.35,-1153.0,-617.0,305.0,-527.0,-337.0,-326.0,-38.625,-216.375,-33.375,35.6875,-60.9375,-5.0625,93637.25,LivingRoom ,EATING,2,0,2
4765.5015625,7153.34375,944.6234374999999,-220.5625,-79.0,926.40625,7.46875,-39.125,-20.28125,2.6015625,-15.439453125,0.419921875,39.669921875,-13.671875,2.458984375,93660.796875,4773.3,7150.875,967.475,-192.5,-56.0,923.5,-10.5,-18.5,7.0,13.03125,-9.5625,1.34375,40.09375,-11.375,1.5625,93660.0,27.9950268751059,46.540413846115996,77.83648181094546,279.55101531078424,163.92543544885513,231.57732065888572,231.7895297219218,116.36808951797961,230.59309705906273,36.662759731215964,66.14933100975439,13.501570196682964,2.197771643122301,7.763418404451782,5.355779809014856,13.229737626320876,4750.0,7200.0,850.0,-213.0,-184.0,459.0,-11.0,-74.0,-222.0,-73.375,-63.25,-33.375,37.75,-3.9375,3.875,93644.25,4802.65,7214.45,1039.6,472.0,265.0,1515.0,735.0,160.0,776.0,57.5625,135.875,30.0625,43.125,-3.4375,15.3125,93684.25,4713.05,7085.6,844.35,-912.0,-395.0,459.0,-527.0,-337.0,-561.0,-73.375,-161.75,-33.375,34.6875,-33.25,-5.0625,93644.25,LivingRoom ,EATING,2,0,1
4781.994000000001,7202.378000000001,993.83,-203.76,-98.48,971.28,-9.72,-59.2,17.2,-8.1525,-4.6425,1.83,39.14,-11.5325,2.29,93657.24,4783.2,7206.3,999.4,-158.0,-80.0,966.0,-11.0,-59.0,16.0,-11.75,0.9375,2.9375,40.3125,-9.6875,1.625,93660.0,12.807422327176742,20.27482059106805,35.71648195628081,229.32224052629525,150.54819826221765,220.46286913370847,187.83581483128646,106.66263013195702,229.75131483120322,35.20584964119362,46.762571839025284,13.387668260691754,2.5645494852897657,7.218482137887438,3.4011276469478964,9.565149415107603,4800.0,7200.0,1000.0,-158.0,-395.0,459.0,-28.0,2.0,-561.0,-73.375,-63.25,-28.1875,35.6875,-10.125,1.625,93653.0,4802.65,7230.85,1039.6,436.0,265.0,1515.0,735.0,160.0,776.0,48.625,126.375,30.0625,42.6875,-3.4375,7.875,93676.75,4762.5,7152.6,933.65,-912.0,-395.0,459.0,-383.0,-285.0,-561.0,-73.375,-94.625,-28.1875,34.625,-31.1875,-3.125,93644.25,LivingRoom ,EATING,1,0,2
4783.318,7209.624000000002,873.4279999999999,-558.56,-37.28,611.04,8.6,-33.04,-21.76,6.6175,54.4025,3.4025,41.4075,-41.51,-1.7375,93660.5,4785.6,7209.9,881.2,-644.0,-62.0,760.0,3.0,-30.0,-18.0,3.9375,47.75,1.5,42.8125,-35.0,1.0625,93657.5,18.546073708469894,12.153738450918492,78.65144372482936,388.1872486313789,141.90240777849166,445.1370088710516,154.0321936046704,106.1168695354325,216.41862982038617,27.706124520356507,91.93476492929193,14.98941770814219,3.2349471112369055,30.49358325601743,8.24411880019124,10.319379018784673,4800.0,7200.0,950.0,-1316.0,75.0,-466.0,-340.0,-24.0,-521.0,-39.5,-139.0,14.0,42.375,-83.6875,1.625,93649.25,4805.3,7230.85,981.8,-90.0,393.0,1173.0,333.0,316.0,456.0,62.25,280.25,39.4375,44.875,-6.125,7.0,93676.75,4743.75,7191.7,736.85,-1316.0,-332.0,-466.0,-340.0,-206.0,-521.0,-39.5,-139.0,-29.875,34.625,-83.6875,-30.0625,93649.25,LivingRoom ,EATING,1,0,2
4745.6078125,7195.3109375,757.540625,-822.3125,177.40625,137.625,2.71875,-30.78125,-37.9375,0.14453125,51.42578125,18.06640625,76.0078125,-61.533203125,-54.61328125,93652.9453125,4743.225,7194.924999999999,737.2750000000001,-851.0,161.5,-45.5,-12.0,-27.0,-36.0,-1.28125,40.09375,14.90625,43.0625,-65.3125,-62.75,93649.25,47.57276279108264,14.37258105524245,85.56363736019205,259.92324394316006,238.55828521254168,408.19695989132026,131.25135559975826,92.98308357247119,177.49110609248984,28.416763697637684,80.52351771136117,20.053720302195035,108.37955276322771,19.21041557662832,52.436259879747446,12.273386888126893,4700.0,7200.0,700.0,-932.0,75.0,-466.0,-340.0,-24.0,-76.0,-44.75,-139.0,14.0,42.375,-51.875,-103.0,93646.0,4805.3,7219.95,929.8,-90.0,520.0,1006.0,333.0,316.0,456.0,62.25,280.25,46.625,358.125,-14.25,6.625,93676.75,4685.65,7163.8,660.35,-1316.0,-223.0,-466.0,-340.0,-206.0,-521.0,-44.75,-139.0,-29.875,1.6875,-83.6875,-113.75,93634.5,LivingRoom ,EATING,1,0,2
4707.9580645161295,7194.935483870967,703.4129032258065,-822.5806451612904,348.7096774193548,103.2258064516129,-38.03225806451613,-28.29032258064516,-47.225806451612904,1.659274193548387,-31.518145161290324,5.252016129032258,75.0,-56.167338709677416,-78.57459677419355,93644.7258064516,4704.45,7195.9,692.75,-851.0,358.0,-104.0,-24.0,-24.0,-40.0,6.0625,-4.5,-2.1875,41.125,-56.0625,-98.5625,93645.25,15.977036107980163,13.990003535551086,34.20861238475368,155.68253470734354,101.46598561369785,397.81224295534355,61.54482587023746,48.638252126206936,56.5259289632757,24.282730482052024,72.18989388806368,29.749538178623848,111.32849524792233,14.752218998841665,38.63882040824127,10.410002169129953,4700.0,7200.0,700.0,-777.0,258.0,-433.0,-24.0,-22.0,-186.0,13.5625,-198.6875,-44.8125,0.4375,-52.1875,-103.0,93634.5,4742.7,7221.0,790.75,-451.0,520.0,801.0,58.0,67.0,57.0,56.3125,58.3125,46.625,358.125,-29.375,-20.25,93665.0,4685.65,7163.8,660.35,-1061.0,142.0,-433.0,-241.0,-147.0,-186.0,-44.75,-198.6875,-44.8125,0.4375,-82.375,-118.1875,93634.5,LivingRoom ,EATING,0,0,3
4710.993548387097,7201.35322580645,772.9112903225806,-618.3870967741935,434.741935483871,488.16129032258067,-57.806451612903224,-21.096774193548388,-54.29032258064516,7.866935483870968,-30.407258064516128,1.2399193548387097,36.76814516129032,-36.284274193548384,-44.40120967741935,93641.46774193548,4713.55,7205.8,790.5,-609.0,370.0,583.0,-34.0,-22.0,-49.0,12.5,-20.375,-7.625,34.5625,-32.0625,-41.3125,93641.0,14.097291358836161,13.11083480360092,58.20211581159431,222.4933972682268,217.82178766779896,345.3980406018727,100.10075569306449,175.3015221152229,71.65109608298029,24.463140544412916,75.7768841027032,43.8949269111471,14.763501884824812,14.717733410661841,27.22181634179168,4.596983583233264,4700.0,7200.0,800.0,-557.0,258.0,550.0,-136.0,-294.0,-71.0,-45.6875,-198.6875,-44.8125,26.25,-35.5625,-20.5,93635.25,4730.1,7221.0,857.05,-163.0,1452.0,802.0,138.0,734.0,103.0,56.3125,87.0,98.9375,55.25,-16.5,-20.25,93647.75,4675.4,7168.9,683.05,-969.0,241.0,-433.0,-330.0,-294.0,-186.0,-45.6875,-198.6875,-44.8125,0.4375,-65.625,-118.1875,93634.5,LivingRoom ,EATING,0,1,1
4682.7484375,7203.5234375,801.3046875,-473.28125,464.96875,684.53125,-44.4375,-31.34375,-27.78125,-0.66015625,3.140625,11.66015625,32.4609375,-25.638671875,-34.47265625,93654.09375,4675.7,7200.65,796.2,-476.0,441.5,660.0,-32.0,-33.5,-17.5,2.75,-0.40625,3.96875,29.875,-26.125,-31.8125,93645.0,29.617884974843566,19.240116794189007,26.945067653782857,154.56666468111797,207.15048050289587,158.64160955517963,100.0057861229265,175.164366934455,121.63820876124886,31.082932193812105,47.796166564971,39.305663918878544,8.417707520411573,5.643913863922537,8.588881502190455,18.40590170955869,4650.0,7200.0,800.0,-799.0,227.0,610.0,-136.0,-294.0,-71.0,-53.6875,-81.5,-43.25,26.25,-28.9375,-49.625,93686.5,4725.85,7244.55,857.05,-163.0,1452.0,1026.0,138.0,734.0,258.0,51.5625,87.0,98.9375,55.25,-16.5,-20.75,93686.5,4642.55,7168.9,754.5,-799.0,227.0,412.0,-330.0,-294.0,-331.0,-53.6875,-81.5,-43.25,25.875,-35.5625,-49.625,93639.25,LivingRoom ,EATING,0,1,0
4657.2515151515145,7217.654545454546,794.2590909090909,-398.27272727272725,481.1212121212121,698.2121212121212,-36.515151515151516,-43.24242424242424,-28.303030303030305,2.534090909090909,3.1931818181818183,2.397727272727273,29.047348484848484,-21.426136363636363,-35.52840909090909,93662.30303030302,4656.55,7222.6,791.3,-383.0,483.0,687.0,-26.0,-36.0,-34.0,0.1875,-9.1875,2.0625,29.4375,-22.125,-33.75,93660.5,9.652837057444556,17.308466875150494,19.16630936755241,204.73111523521416,120.77115693941518,140.88975246086866,106.63756409332302,70.5274903419893,110.99394264116535,26.673069919177884,58.836630700745516,24.068616400918135,2.6767604414106163,8.001288570318618,6.894930112561132,14.112377874770184,4650.0,7200.0,800.0,-865.0,661.0,678.0,-248.0,-171.0,-20.0,-53.6875,-81.5,-60.625,30.5,-23.3125,-42.8125,93686.5,4676.0,7244.55,829.85,-62.0,661.0,1026.0,189.0,110.0,258.0,51.5625,158.375,48.4375,33.375,-9.5,-25.625,93686.5,4638.85,7186.35,754.5,-865.0,227.0,380.0,-248.0,-171.0,-331.0,-53.6875,-81.5,-60.625,23.0,-38.3125,-47.4375,93645.0,LivingRoom ,EATING,0,0,0
4675.8390625,7217.3671875,795.109375,-475.53125,553.53125,582.875,-44.8125,-40.03125,-37.28125,7.765625,5.6171875,-0.43359375,30.87109375,-26.47265625,-43.98828125,93657.453125,4671.0,7218.15,794.075,-557.0,548.0,569.0,-38.0,-34.5,-34.5,3.40625,-8.6875,0.03125,29.71875,-32.59375,-44.53125,93654.5,27.15512407647718,13.796239607898485,18.74958252223405,237.14048978434974,60.16535514461308,100.24767715111183,98.94131121284036,56.867409099957555,32.803652801125274,13.848319669233893,50.293282369637566,22.479795686075565,5.152853536786446,11.526332246445246,4.4958100313182285,4.793913101275475,4650.0,7200.0,800.0,-865.0,557.0,429.0,-248.0,-48.0,-80.0,-11.6875,-66.6875,-60.625,30.0,-41.1875,-42.8125,93651.75,4746.35,7242.55,829.85,-62.0,661.0,748.0,189.0,110.0,11.0,42.375,158.375,48.4375,42.9375,-9.5,-31.75,93664.5,4638.85,7178.1,764.5,-865.0,396.0,380.0,-248.0,-171.0,-126.0,-11.6875,-66.6875,-60.625,23.0,-41.1875,-50.6875,93651.75,LivingRoom ,EATING,0,0,0
4705.03125,7201.529166666667,793.6750000000001,-590.5833333333334,529.3333333333334,547.1666666666666,-42.208333333333336,-29.875,-36.916666666666664,2.9713541666666665,-12.84375,1.0208333333333333,40.8671875,-33.768229166666664,-44.2109375,93658.41666666667,4704.5,7203.950000000001,795.425,-586.0,538.5,537.0,-42.0,-34.5,-28.5,5.21875,-12.84375,0.03125,39.5625,-33.65625,-45.40625,93657.5,24.42369133381695,14.782215494557587,19.255496109806735,103.46304388174244,58.6164145779236,105.40797208802636,66.64375059038638,35.62767915173721,85.47560886091966,23.920369900658514,41.81260357756717,10.036544411892176,9.677428363726303,4.790037185521375,4.6634641917423405,6.756505185289254,4700.0,7200.0,800.0,-797.0,557.0,429.0,-8.0,-39.0,-19.0,-67.5,-89.9375,-12.75,48.875,-33.75,-50.6875,93651.75,4746.35,7222.6,832.4,-405.0,655.0,807.0,130.0,86.0,149.0,41.25,108.1875,23.25,56.5625,-24.4375,-34.625,93672.0,4671.25,7178.1,764.5,-797.0,400.0,401.0,-236.0,-81.0,-265.0,-67.5,-89.9375,-12.75,28.1875,-41.1875,-50.6875,93651.75,LivingRoom ,EATING,0,0,0
4701.832,7215.392,850.796,-546.76,408.0,678.24,-27.2,-37.04,-22.28,-0.915,-1.395,-6.96,60.4875,-31.715,-32.635,93665.46,4701.35,7221.05,865.1,-547.0,431.0,672.0,-7.0,-45.0,-19.0,-1.6875,-19.5,-1.9375,56.0625,-32.1875,-34.625,93672.0,23.279693762304255,23.365651784902827,30.92560266187226,143.86402144617907,132.0637472334226,176.58031222836445,88.61950500125053,83.22433538334806,141.482778692909,36.73431354560292,51.99303438923333,24.681136310618548,11.142118734595918,4.320120079349647,7.439702930057086,14.014813591339701,4700.0,7200.0,850.0,-366.0,319.0,401.0,25.0,-139.0,-265.0,-67.5,-19.5,-61.0625,48.875,-40.5,-43.0,93682.5,4735.55,7253.2,882.1,-206.0,655.0,1094.0,130.0,108.0,257.0,59.125,108.1875,23.6875,76.9375,-23.25,-18.8125,93682.5,4668.45,7185.1,796.05,-858.0,140.0,401.0,-236.0,-162.0,-265.0,-67.5,-89.9375,-61.0625,46.4375,-40.5,-43.0,93647.0,LivingRoom ,EATING,0,0,0
4740.65,7219.9578125,859.7015624999999,-589.21875,285.5,702.21875,-8.90625,-36.9375,-6.375,-1.017578125,1.322265625,-6.6953125,73.142578125,-36.8984375,-24.38671875,93659.53125,4742.575000000001,7219.575000000001,868.2750000000001,-567.5,315.5,674.5,18.5,-23.5,-28.0,-4.0625,-12.875,1.6875,77.28125,-35.78125,-23.09375,93656.25,54.04137005498058,17.280205482345902,25.604219298133966,154.37694428709023,136.93605759977078,195.21018190905858,92.96664659453012,84.72343526953429,168.91928784615337,37.099114721223984,47.16676966497473,21.584725864022456,10.960433725604886,6.53398663534036,6.883525459897453,14.244374950903795,4800.0,7200.0,850.0,-790.0,319.0,658.0,-107.0,12.0,-264.0,-63.9375,-19.5,-61.0625,75.6875,-50.0625,-38.5625,93656.25,4817.3,7253.2,885.6,-206.0,520.0,1191.0,142.0,108.0,467.0,59.125,118.125,23.6875,85.25,-23.25,-13.9375,93682.5,4668.45,7191.5,801.55,-898.0,-12.0,370.0,-219.0,-177.0,-264.0,-63.9375,-62.8125,-61.0625,49.75,-50.0625,-38.5625,93647.0,LivingRoom ,EATING,0,0,0
4795.056451612903,7208.9693548387095,820.4774193548386,-581.5806451612904,217.38709677419354,735.483870967742,-10.35483870967742,-37.61290322580645,-2.161290322580645,-1.7358870967741935,-1.8548387096774193,0.3709677419354839,83.66935483870968,-37.02620967741935,-19.449596774193548,93651.58870967742,4800.0,7206.45,805.0,-564.0,229.0,712.0,3.0,-22.0,-33.0,1.3125,3.4375,3.3125,83.375,-36.6875,-19.625,93651.75,17.439675751646917,14.039988588666787,35.62477330620195,175.16559292919533,108.73627956953305,206.01260009487154,103.10400845330788,72.38216972862624,175.75989242414278,36.84637911059685,57.86154763360942,11.189815117578636,4.356245323658032,7.430560035840944,3.1638592004579755,3.004544049641569,4800.0,7200.0,800.0,-565.0,-12.0,658.0,-57.0,-20.0,-122.0,28.75,-134.4375,-21.4375,80.125,-45.0,-21.75,93651.75,4817.3,7238.0,885.6,-194.0,388.0,1302.0,142.0,73.0,467.0,50.0625,118.125,26.0,93.625,-23.6875,-13.9375,93656.25,4750.05,7191.5,781.35,-932.0,-12.0,370.0,-241.0,-177.0,-264.0,-63.9375,-134.4375,-21.4375,77.625,-50.0625,-24.375,93648.0,LivingRoom ,EATING,0,0,1
4783.593548387096,7237.372580645161,796.9354838709679,-546.3870967741935,237.32258064516128,754.6451612903226,-7.67741935483871,-35.193548387096776,-12.161290322580646,-4.415322580645161,3.461693548387097,-1.4193548387096775,90.4133064516129,-33.653225806451616,-19.778225806451612,93650.73387096774,4781.4,7247.15,797.05,-511.0,223.0,703.0,-8.0,-20.0,-33.0,13.3125,26.875,-3.375,90.625,-32.5,-19.4375,93651.75,18.35405832477506,31.39730571962525,9.341174029963494,183.0733327420745,99.80961446566631,188.2648043558322,132.10990048611654,72.41013711483528,158.5484356643512,35.56692103592615,89.2466424984415,18.02565585916989,5.0084480042514485,5.821114555132762,3.0946795198606853,8.651333106298072,4800.0,7250.0,800.0,-457.0,33.0,421.0,18.0,-81.0,-122.0,28.75,-238.1875,-34.8125,90.625,-31.25,-17.125,93651.75,4810.75,7281.5,819.35,-150.0,392.0,1302.0,433.0,73.0,409.0,40.6875,126.3125,29.4375,97.625,-23.6875,-15.3125,93663.0,4761.25,7192.15,781.35,-932.0,33.0,421.0,-241.0,-204.0,-270.0,-78.0,-238.1875,-34.8125,81.25,-45.0,-25.625,93636.0,LivingRoom ,EATING,0,0,1
4765.7390625,7240.776562499999,785.7015625,-540.8125,243.4375,739.21875,-13.625,-32.53125,-26.21875,-4.611328125,6.96484375,-4.478515625,97.283203125,-33.796875,-20.03125,93648.71875,4766.125,7248.799999999999,789.425,-542.0,223.5,715.0,-10.0,-30.5,-39.0,11.40625,17.96875,-4.3125,96.75,-33.46875,-19.5,93645.25,8.486818378492426,26.944458956297147,18.97886551376336,172.3289123515206,96.58589274536605,192.90056512149866,127.65041728195824,71.58436681692899,162.22301144889522,34.80727734313741,89.8954294739025,17.671820741802275,5.4167541850223975,5.038410927804455,2.9596156163890934,13.886311140716034,4750.0,7250.0,800.0,-873.0,194.0,556.0,-60.0,-60.0,-277.0,28.375,-238.1875,-34.8125,90.625,-31.25,-19.5625,93633.75,4781.4,7281.5,819.35,-129.0,421.0,1197.0,433.0,87.0,415.0,44.5,126.3125,29.4375,107.4375,-24.625,-16.125,93666.75,4744.4,7201.95,754.25,-873.0,13.0,421.0,-240.0,-213.0,-277.0,-78.0,-238.1875,-34.8125,88.5,-43.5625,-25.625,93633.75,LivingRoom ,EATING,0,0,0
4768.107812499999,7221.3078125,796.565625,-571.65625,208.1875,732.53125,-21.40625,-46.46875,-13.125,2.341796875,13.37890625,-3.021484375,105.291015625,-36.533203125,-19.509765625,93646.765625,4769.975,7219.3,793.25,-564.0,202.0,750.5,-4.5,-39.0,-13.0,11.25,12.625,-2.71875,106.90625,-37.21875,-18.84375,93638.25,9.537287683131266,17.030816989168446,30.29244938791439,154.59783610199514,111.17740473037067,214.157160315774,93.68439102095793,97.68843969477658,169.3364183530677,29.51098835285338,58.587579917072134,13.581793818579088,6.034231345181202,5.9529401191552385,3.5482031094907174,12.990526557531664,4750.0,7200.0,800.0,-501.0,-12.0,327.0,-240.0,-84.0,-43.0,26.875,-171.5,-33.8125,106.8125,-51.8125,-21.4375,93633.75,4782.25,7250.45,844.45,-129.0,460.0,1197.0,176.0,153.0,415.0,44.5,114.5,28.125,112.6875,-24.625,-14.375,93666.75,4744.4,7183.95,754.25,-881.0,-12.0,327.0,-240.0,-279.0,-345.0,-68.25,-171.5,-33.8125,93.6875,-51.8125,-27.4375,93633.75,LivingRoom ,EATING,0,0,0
4765.7328125,7191.290625,760.3046875,-784.59375,219.03125,456.65625,-19.5,-32.5,-12.1875,3.263671875,17.55078125,2.47265625,108.30859375,-54.18359375,-35.208984375,93649.59375,4767.025,7179.025,796.1,-798.5,220.5,385.5,-27.0,-19.0,-4.5,7.75,24.0,0.96875,108.125,-54.3125,-28.5625,93654.5,11.145508348693905,38.52282615645746,77.78488571091741,200.6523006748964,104.42576754527282,313.48577262309175,98.57304480074825,91.62476070470007,136.07598387333738,21.36007858720946,48.482333407085164,15.920527312063292,2.5879653966297975,15.305638995332522,17.96592182774699,10.433690390331233,4750.0,7150.0,800.0,-1060.0,-12.0,-65.0,-65.0,-19.0,-345.0,15.75,-109.9375,-17.125,107.0625,-73.0625,-72.0,93636.0,4782.25,7248.95,844.45,-410.0,460.0,1156.0,241.0,153.0,396.0,40.5,83.125,40.25,112.6875,-33.9375,-14.375,93663.5,4745.4,7139.65,617.65,-1060.0,-12.0,-65.0,-223.0,-279.0,-345.0,-58.0,-109.9375,-33.8125,101.8125,-73.0625,-72.0,93636.0,LivingRoom ,EATING,0,0,2
4744.4375,7185.8375,658.7765625,-916.25,278.9375,273.9375,-16.09375,-27.53125,-8.59375,3.52734375,6.056640625,3.025390625,102.19921875,-63.986328125,-48.146484375,93657.046875,4742.5,7177.575000000001,640.5,-939.0,271.5,267.5,-34.5,-30.5,5.0,6.0,14.4375,2.4375,103.78125,-61.875,-47.15625,93658.75,17.966869151212027,33.94175276330261,62.26299706833467,97.68712399056687,69.38947465969451,168.50613801398185,130.02862200424406,48.76076183942669,109.33873361876311,19.959541597472874,54.31638098947778,14.98048848084561,6.063226126700872,5.796614486907735,9.521590615360555,8.872855829129431,4750.0,7150.0,600.0,-1060.0,302.0,388.0,-65.0,-37.0,7.0,22.75,13.875,-6.6875,91.3125,-58.9375,-39.3125,93641.25,4778.25,7244.4,796.7,-630.0,461.0,554.0,464.0,75.0,185.0,38.6875,90.1875,40.25,108.6875,-56.5,-29.6875,93668.5,4719.5,7139.65,587.65,-1060.0,144.0,-143.0,-223.0,-119.0,-370.0,-36.6875,-120.125,-29.75,89.3125,-73.0625,-72.0,93641.25,LivingRoom ,EATING,0,0,0
4723.7640625,7219.5484375,674.1031250000001,-718.90625,213.25,521.1875,0.125,-27.4375,-7.96875,-10.130859375,-25.388671875,-2.748046875,97.814453125,-47.822265625,-30.34765625,93654.3125,4722.325,7223.75,673.25,-828.5,271.5,457.5,-19.5,-39.5,5.0,-15.9375,-14.0625,3.0625,98.4375,-58.15625,-39.4375,93655.75,7.401691550072899,16.994152145878157,65.66549510956169,263.6230641648743,155.6965617951749,293.922684314836,136.50989565926432,78.28563807642024,114.5131304979984,26.67893767690716,66.91969363922621,22.94885225127735,4.554400244427528,16.365864151309054,20.904984607179486,10.88873344925994,4700.0,7200.0,600.0,-926.0,279.0,388.0,-163.0,-117.0,-106.0,-65.25,-14.0625,-6.6875,91.3125,-58.9375,-39.3125,93651.75,4739.6,7244.4,787.0,-180.0,461.0,1020.0,464.0,142.0,185.0,38.6875,90.1875,26.125,104.5,-22.625,3.3125,93668.5,4712.45,7181.05,587.65,-1025.0,-126.0,-143.0,-163.0,-145.0,-370.0,-65.25,-197.0,-67.0625,89.3125,-62.8125,-60.0,93636.75,LivingRoom ,EATING,2,0,1
4721.9703125,7197.1484375,779.1921875,-446.5625,-64.78125,756.28125,12.3125,-17.96875,-27.46875,-20.166015625,-16.9140625,1.3125,95.169921875,-28.923828125,-0.302734375,93649.359375,4719.875,7196.925,791.075,-392.0,-102.5,859.0,0.5,-30.5,-28.5,-24.90625,-17.8125,9.78125,95.21875,-24.5,4.125,93651.75,8.070634337452752,30.909669341003287,60.54537502564475,296.97387063293917,230.26656843823983,252.68752019619652,129.72512814010918,78.59306559536547,125.16801208775348,22.85695574108127,95.67811453149784,22.973446277625996,4.255103505259748,17.04249857429919,20.62774364311811,10.042437673965614,4700.0,7200.0,850.0,-991.0,-406.0,859.0,-69.0,-72.0,-317.0,-65.25,-212.5,-67.0625,89.4375,-24.375,20.0,93651.75,4739.45,7240.65,857.85,42.0,337.0,1074.0,319.0,142.0,283.0,31.5625,215.3125,26.125,102.3125,-2.625,21.75,93668.5,4708.55,7138.75,673.15,-991.0,-406.0,148.0,-227.0,-145.0,-317.0,-65.25,-212.5,-67.0625,89.0625,-61.875,-57.25,93636.75,LivingRoom ,EATING,2,0,1
4725.3828125,7160.89375,828.346875,-442.40625,-211.625,706.0625,44.65625,-31.9375,-18.40625,-1.08203125,33.427734375,7.31640625,96.37890625,-32.673828125,14.37109375,93651.8828125,4725.700000000001,7157.950000000001,827.4749999999999,-350.0,-212.5,832.5,50.5,-25.5,-15.0,-4.09375,28.5,8.4375,95.375,-24.21875,14.71875,93653.0,13.366602635981415,17.389075871863348,13.364142789569414,362.0742090551372,111.19693370105189,327.94707849029936,152.56233192032607,92.356580183687,186.45830795338327,27.16869454132158,116.97861017834762,13.516901918516623,4.902423320183831,24.52231504312643,3.6334695794069622,7.900843252004304,4750.0,7150.0,850.0,-1133.0,-406.0,859.0,-69.0,-79.0,-362.0,-46.375,-212.5,7.6875,95.3125,-30.625,10.8125,93651.0,4746.6,7194.0,857.85,140.0,52.0,1152.0,355.0,141.0,544.0,65.125,265.4375,32.625,104.3125,-2.625,21.75,93661.25,4700.6,7138.55,795.15,-1133.0,-406.0,-150.0,-227.0,-256.0,-362.0,-46.375,-212.5,-18.125,89.0625,-80.3125,4.9375,93639.25,LivingRoom ,EATING,3,0,1
4691.435937499999,7165.712500000001,784.9,-758.375,-23.15625,282.96875,23.34375,-30.40625,4.34375,10.21484375,32.091796875,13.7734375,100.98828125,-61.595703125,-45.92578125,93653.5546875,4701.975,7166.3,816.075,-937.5,-29.0,88.0,-14.0,-10.0,12.0,8.53125,11.625,17.65625,102.375,-75.5,6.09375,93656.25,41.052044533531685,18.521221481351876,49.8153428884794,361.79006120552395,194.6006845087918,424.64485991997077,129.09876423660822,85.94666739959598,154.8994698703938,19.598663095632027,91.39091111907766,17.194274691223765,4.362899091528809,26.89495688302302,73.9657663116087,7.587854890196399,4650.0,7150.0,800.0,-963.0,-396.0,-150.0,-34.0,-10.0,-362.0,27.1875,-172.625,32.625,91.5625,-80.3125,16.5625,93661.25,4746.6,7200.9,839.65,140.0,280.0,1152.0,355.0,121.0,544.0,65.125,265.4375,36.0,106.375,-10.875,16.5625,93661.25,4624.55,7138.55,711.8,-1133.0,-396.0,-150.0,-216.0,-256.0,-362.0,-14.75,-172.625,-18.125,91.5625,-89.125,-179.5,93641.0,LivingRoom ,EATING,2,0,3
4618.123333333333,7205.620000000001,721.4733333333334,-950.7,225.13333333333333,-79.93333333333334,-22.966666666666665,-20.833333333333332,1.2,3.2083333333333335,9.095833333333333,16.825,96.67291666666667,-73.70625,-107.56041666666667,93655.26666666666,4625.775,7199.65,712.875,-944.0,270.0,-102.0,-23.0,-11.5,1.0,1.125,5.3125,18.40625,94.6875,-69.6875,-110.53125,93658.75,49.63409689631346,31.180698605343007,36.19021760883337,65.91015305597514,144.52722767779738,80.24786315055302,47.97160319025911,26.253516458500975,33.78777579396798,12.76664242329861,17.61774377817243,14.699288189428156,7.440364258189261,8.509647637210529,43.480513878114245,8.685832036190865,4650.0,7200.0,700.0,-963.0,265.0,-168.0,-34.0,-10.0,-44.0,-20.5625,0.0,-15.0625,91.6875,-89.125,-110.875,93661.25,4703.25,7264.35,826.6,-825.0,416.0,126.0,84.0,14.0,66.0,27.1875,49.0625,37.6875,106.375,-60.1875,1.625,93664.25,4538.8,7157.95,685.45,-1129.0,-76.0,-174.0,-133.0,-76.0,-65.0,-20.5625,-35.9375,-15.0625,80.25,-89.125,-179.5,93641.0,LivingRoom ,EATING,0,0,0
4592.000000000001,7217.262000000001,688.63,-865.92,429.76,-147.52,-23.08,-25.32,-8.68,-7.085,9.13,8.6425,77.775,-60.2825,-108.33,93650.65,4594.35,7221.45,694.25,-863.0,414.0,-154.0,-21.0,-22.0,-11.0,-3.8125,8.5625,6.25,81.75,-60.9375,-108.875,93650.25,29.837703357776494,28.41955122211936,17.511097671667144,93.17274279530467,113.22149383693304,36.33767558150448,42.35949322957803,33.57419644111631,61.722983293637604,18.208722583558682,10.0702596892202,16.015236479027298,16.42041055554032,8.395751653862407,2.8527513218236646,10.334005354491872,4600.0,7250.0,700.0,-1010.0,325.0,-168.0,-106.0,-71.0,-44.0,-38.0625,0.0,-15.0625,94.625,-69.8125,-110.875,93637.5,4657.6,7264.35,713.15,-714.0,575.0,-68.0,38.0,75.0,92.0,30.25,33.375,37.6875,94.8125,-49.5625,-102.3125,93664.25,4538.8,7148.65,651.45,-1010.0,265.0,-202.0,-106.0,-77.0,-234.0,-38.0625,-7.875,-15.0625,54.3125,-69.8125,-111.75,93637.5,LivingRoom ,EATING,0,0,0
4660.073214285714,7170.126785714286,700.9803571428571,-642.7142857142857,616.25,59.857142857142854,-21.678571428571427,-39.285714285714285,-46.285714285714285,-0.29017857142857145,-43.214285714285715,22.341517857142858,76.62946428571429,-40.82142857142857,-86.46651785714286,93647.08928571429,4676.725,7161.55,700.275,-728.0,568.0,-160.0,-16.5,-23.5,-12.5,-10.5,-14.09375,16.46875,75.4375,-49.9375,-103.28125,93650.25,38.415381955242886,26.250193939822783,34.97489400954399,269.8493210750327,204.5677692654007,385.06870135328415,87.89052684444842,83.18380235084818,123.95245717698234,36.16756357009081,80.60065744452348,28.239440433379873,16.632994880173037,16.663677807398432,27.683883752131333,6.743383000076022,4700.0,7150.0,700.0,-997.0,500.0,-166.0,57.0,-129.0,0.0,-30.375,-289.75,-12.8125,90.0625,-57.4375,-111.75,93642.75,4704.35,7226.6,791.55,-164.0,1611.0,699.0,219.0,75.0,92.0,69.25,33.375,81.0625,100.125,-9.625,-43.625,93654.0,4594.2,7134.0,651.45,-997.0,500.0,-415.0,-195.0,-269.0,-442.0,-47.0,-289.75,-12.8125,54.3125,-57.4375,-115.875,93637.5,LivingRoom ,EATING,0,1,2
4694.246875,7161.1453125,783.7359375,-364.0625,653.96875,422.3125,-17.96875,-36.125,-49.8125,3.505859375,-40.33984375,17.40625,89.064453125,-21.865234375,-59.58203125,93646.6875,4695.525,7161.55,783.95,-226.5,639.5,651.5,-19.5,-23.5,-24.5,-1.25,-11.46875,6.5625,91.3125,-11.84375,-44.53125,93647.25,10.518301542488153,12.266163525778111,79.7480409652953,300.93080734024494,183.46564842832515,392.1649946954931,79.95260062545928,74.31873379941553,103.40569570011995,29.5692417949186,74.87383699333053,27.048544136780354,9.234286516755818,18.448333404046142,25.354137088749855,6.591783742146416,4700.0,7150.0,700.0,-142.0,651.0,659.0,-40.0,-129.0,-42.0,-1.25,4.3125,-1.6875,90.0625,-11.25,-44.4375,93642.75,4713.7,7181.95,891.35,-82.0,1611.0,713.0,219.0,73.0,74.0,69.25,23.9375,81.0625,100.125,-6.6875,-43.375,93654.0,4674.5,7134.0,670.15,-997.0,500.0,-415.0,-195.0,-269.0,-442.0,-47.0,-289.75,-8.3125,60.125,-56.125,-115.875,93638.25,LivingRoom ,EATING,2,1,2
4702.738709677419,7155.293548387095,822.8225806451612,-215.6451612903226,639.8064516129032,657.7096774193549,-10.419354838709678,-25.580645161290324,-25.483870967741936,0.15524193548387097,4.703629032258065,-0.20766129032258066,92.62096774193549,-12.006048387096774,-44.19556451612903,93644.08064516129,4701.6,7161.2,832.7,-240.0,638.0,652.0,-13.0,-26.0,-25.0,0.5625,4.25,-1.1875,92.5625,-13.4375,-44.25,93638.75,6.878428959161781,19.010864183125577,52.37134209773776,68.01595322035205,10.232039076152613,17.37468186449677,20.348258227750744,5.846789395605006,11.831796053408896,2.241585595328181,7.892984882125542,4.622279241865958,1.2109456837219128,3.8872573222321303,0.3783674964443846,8.859408157615599,4700.0,7150.0,850.0,-265.0,630.0,659.0,-29.0,-31.0,-31.0,-1.25,4.25,-1.75,94.25,-16.625,-44.4375,93633.75,4715.3,7181.95,891.35,-82.0,661.0,713.0,48.0,-15.0,6.0,4.4375,23.9375,14.5625,94.4375,-6.6875,-43.375,93656.25,4690.55,7114.65,710.0,-314.0,627.0,632.0,-43.0,-37.0,-44.0,-5.1875,-15.875,-7.3125,90.4375,-16.625,-44.875,93633.75,LivingRoom ,EATING,0,0,0
4722.972727272728,7126.389393939393,759.439393939394,-316.1818181818182,612.1515151515151,647.5151515151515,-9.181818181818182,-20.545454545454547,-26.545454545454547,-4.465909090909091,-5.928030303030303,-14.734848484848484,97.77651515151516,-18.251893939393938,-43.121212121212125,93650.79545454546,4724.05,7125.55,760.5,-282.0,634.0,649.0,-7.0,-20.0,-22.0,0.0625,2.0625,-1.75,94.75,-16.5625,-44.5625,93656.25,19.783243741978826,23.078648674071335,50.019577038607714,106.07204348503383,56.014574672647264,41.58509439399622,61.03864275269322,56.8314893506952,30.420070378258195,17.381933551578122,29.61353500300248,23.29863565563069,7.666670687426893,4.283059746616561,4.935248185929811,9.850336000268305,4700.0,7150.0,700.0,-265.0,630.0,646.0,-8.0,-28.0,-7.0,1.0,-111.6875,-1.1875,94.25,-16.625,-44.875,93633.75,4754.75,7172.3,857.6,-140.0,660.0,718.0,199.0,164.0,49.0,24.1875,29.8125,1.3125,122.4375,-13.4375,-24.625,93658.75,4696.75,7088.95,682.15,-630.0,435.0,502.0,-166.0,-167.0,-116.0,-56.375,-111.6875,-66.75,92.3125,-29.375,-46.75,93633.75,LivingRoom ,EATING,0,0,0
4742.61875,7153.371875,786.15625,-396.4375,447.96875,743.28125,-11.28125,-8.65625,-5.1875,-7.123046875,-2.369140625,-14.072265625,112.408203125,-23.25,-31.13671875,93656.15625,4743.5,7141.825000000001,799.175,-399.0,462.5,696.5,-9.0,-8.5,-11.0,-0.5,3.46875,-3.75,118.28125,-24.125,-26.3125,93657.5,8.348051250287034,55.28096554158293,65.63609076788717,141.94409110632256,174.21704749276626,151.48942992510158,107.54450972774318,67.64690555114225,98.7013865641077,26.843790413499,37.961954238428696,29.416888927573005,13.416426502407637,4.477035939821302,12.822782434790028,2.6241358024457155,4750.0,7100.0,850.0,-266.0,153.0,717.0,-233.0,-12.0,-65.0,-39.5,-111.6875,-66.75,95.375,-28.0,-44.875,93655.25,4759.7,7247.05,870.1,-140.0,660.0,1145.0,245.0,164.0,282.0,33.375,72.75,35.0,128.3125,-16.5,-14.75,93658.75,4724.05,7088.95,682.15,-673.0,153.0,502.0,-233.0,-167.0,-255.0,-61.0,-111.6875,-66.75,94.75,-30.625,-46.75,93650.0,LivingRoom ,EATING,0,0,0
4765.283870967742,7235.732258064517,846.1870967741936,-496.7096774193548,298.06451612903226,766.6129032258065,-3.3225806451612905,9.35483870967742,-6.67741935483871,-0.625,11.288306451612904,-2.5705645161290325,128.66935483870967,-30.9375,-20.268145161290324,93653.7741935484,4757.4,7247.05,856.05,-489.0,292.0,758.0,-12.0,3.0,-20.0,-5.0,0.375,2.3125,128.1875,-26.9375,-20.5,93653.25,23.695352522864006,45.94229088103743,22.214514653494522,195.98574668384896,80.15149634031418,162.8720719704793,112.69232067796344,46.85477448961972,121.60904217937474,28.664306164926906,62.835786888613804,19.99097935850982,5.29322959731509,9.974146266723784,3.23824772367595,2.7396432543837386,4750.0,7250.0,850.0,-949.0,307.0,692.0,-31.0,0.0,-255.0,-61.0,-79.5,-39.6875,128.3125,-28.0,-21.5,93650.0,4808.05,7294.0,872.7,-147.0,454.0,1145.0,245.0,110.0,282.0,47.875,168.3125,35.0,136.125,-19.4375,-14.75,93658.0,4734.4,7142.85,807.6,-949.0,153.0,459.0,-233.0,-95.0,-255.0,-61.0,-79.5,-39.6875,118.5625,-52.8125,-26.0625,93650.0,LivingRoom ,EATING,0,0,0
4776.579687500001,7282.94375,809.53125,-628.84375,285.375,658.59375,-4.3125,5.375,-13.03125,2.955078125,7.126953125,-4.376953125,134.828125,-40.396484375,-22.021484375,93655.0625,4780.799999999999,7282.175,807.25,-669.5,274.5,660.0,-6.0,1.5,-15.5,-0.21875,-0.65625,-2.34375,135.34375,-43.90625,-22.375,93653.25,20.358222795299877,21.381382276749903,42.15355522066835,189.94822883379769,83.98799837457577,137.15351873580533,83.73862464875164,59.61529896736023,114.89082738731554,27.4775808283623,63.71595288710864,11.505416899793524,3.5958225089858136,9.84398981242704,2.926760971108855,4.012581021189841,4800.0,7300.0,850.0,-949.0,251.0,459.0,-17.0,0.0,-178.0,27.4375,-79.5,-25.9375,133.5,-42.4375,-20.5,93653.0,4808.05,7327.95,872.7,-147.0,454.0,1019.0,179.0,87.0,332.0,47.875,168.3125,12.9375,140.1875,-19.4375,-16.625,93661.25,4738.55,7241.1,754.9,-949.0,72.0,459.0,-210.0,-144.0,-212.0,-48.375,-79.5,-25.9375,124.1875,-52.8125,-26.0625,93650.0,LivingRoom ,EATING,0,0,0
4713.4234375,7287.743750000001,779.0249999999999,-708.9375,318.5,607.875,-14.03125,6.5625,-0.03125,2.8125,-2.287109375,-0.732421875,139.56640625,-45.232421875,-26.77734375,93660.53125,4740.1,7292.200000000001,777.975,-709.0,356.0,591.0,-9.0,5.0,-1.0,1.53125,-1.65625,0.625,140.6875,-45.03125,-26.75,93661.25,71.05382555860105,23.645465193003773,16.690715982245937,65.73501914455859,87.59474133575269,104.5206415792069,54.933087963683654,58.9690665217927,90.97163130126283,21.28678031382464,28.29594937178384,6.703153491273384,2.831051606842383,2.1002612629698847,4.877634149272906,5.432039805783174,4750.0,7300.0,800.0,-709.0,371.0,552.0,-32.0,-7.0,-17.0,-48.375,-1.6875,-21.1875,135.125,-47.375,-32.5625,93651.5,4795.85,7327.95,808.45,-551.0,436.0,1019.0,108.0,109.0,332.0,35.75,91.125,9.3125,143.5,-41.9375,-16.625,93671.5,4579.5,7229.95,754.9,-867.0,72.0,468.0,-193.0,-144.0,-178.0,-48.375,-75.3125,-21.1875,135.0,-49.1875,-32.5625,93651.5,LivingRoom ,EATING,0,0,0
4633.198437499999,7278.73125,788.7796875,-704.5625,349.53125,608.125,-6.71875,2.09375,14.5625,2.1640625,-0.390625,1.927734375,142.470703125,-44.640625,-29.9140625,93662.65625,4613.725,7281.125,785.9,-707.0,366.5,618.0,-5.0,1.5,16.5,0.59375,-0.5625,0.9375,142.125,-44.75,-30.5,93665.25,51.568910183169855,26.441935016548143,19.69611824935923,69.75576632425359,53.692063674372804,72.51507073616469,53.26454632456086,44.30565344760593,65.59402878999906,20.339982958548227,38.972759820989275,11.03486169943033,2.122507098887688,2.9281551772294248,2.5308952857794504,7.250903725654457,4600.0,7300.0,800.0,-716.0,370.0,552.0,-32.0,-7.0,-17.0,6.4375,-1.6875,-28.3125,141.1875,-45.125,-32.25,93665.25,4743.4,7338.4,832.15,-536.0,436.0,776.0,102.0,109.0,223.0,43.125,103.6875,20.25,147.6875,-38.0625,-25.25,93671.5,4572.75,7229.95,761.95,-875.0,206.0,457.0,-161.0,-97.0,-117.0,-25.5625,-85.25,-28.3125,138.25,-51.125,-34.75,93651.25,LivingRoom ,EATING,0,0,0
4653.15,7292.788333333334,790.0966666666666,-634.8333333333334,332.0,657.9,6.233333333333333,-15.033333333333333,24.666666666666668,-3.908333333333333,2.283333333333333,5.9375,141.575,-40.958333333333336,-27.960416666666667,93662.675,4655.95,7283.175,782.175,-658.0,321.0,683.0,2.5,-8.0,8.5,-14.65625,-3.84375,4.75,142.40625,-41.71875,-27.28125,93665.25,55.846987693901255,36.91294904869104,30.286912313262707,154.2872563475816,78.0963154237037,128.85339169662603,88.20105689152261,62.06530672485697,134.26564850257154,29.035361046350946,68.6160425607263,13.615456559645226,4.550524552938546,5.660408985670335,3.139598802294302,9.840790811367928,4600.0,7300.0,750.0,-716.0,206.0,697.0,-12.0,-8.0,-184.0,-55.6875,-125.25,-1.625,132.625,-51.125,-26.25,93651.25,4764.0,7353.45,840.7,-283.0,481.0,1014.0,196.0,81.0,404.0,43.125,221.75,29.8125,147.6875,-27.75,-21.4375,93677.25,4572.75,7231.35,746.85,-911.0,159.0,429.0,-212.0,-171.0,-184.0,-55.6875,-125.25,-28.3125,132.625,-51.125,-34.75,93650.5,LivingRoom ,EATING,0,0,0
4734.186206896551,7247.1,749.9931034482759,-582.2068965517242,337.2758620689655,692.1724137931035,4.413793103448276,-20.689655172413794,9.310344827586206,-5.956896551724138,-0.3146551724137931,4.5,134.67672413793105,-37.21551724137931,-27.06896551724138,93666.96551724138,4748.45,7240.0,746.85,-596.0,356.0,686.0,-6.0,-2.0,-62.0,-7.8125,-6.125,2.375,132.625,-37.3125,-26.6875,93665.25,35.83673269284641,69.13917511595199,46.74191817870369,147.4067209434846,128.00806240002566,192.46540857394854,106.54225092200323,104.1565111634121,191.57357845118187,36.405554880887955,64.03896449806157,12.99156233731285,6.752791026925469,4.087511816240585,3.3160503559285983,9.103503087982475,4750.0,7150.0,700.0,-627.0,159.0,742.0,-212.0,-290.0,0.0,-68.375,-125.25,-6.25,131.1875,-38.25,-26.6875,93664.5,4769.9,7353.45,840.7,-283.0,573.0,1121.0,196.0,116.0,404.0,44.4375,221.75,29.8125,147.625,-27.75,-21.4375,93677.25,4667.8,7160.45,693.1,-911.0,47.0,376.0,-212.0,-290.0,-239.0,-68.375,-125.25,-30.6875,126.1875,-45.625,-34.125,93650.5,LivingRoom ,EATING,0,0,0
4755.837096774193,7175.6580645161275,717.4596774193549,-566.1290322580645,317.0967741935484,709.3548387096774,15.387096774193548,-26.29032258064516,3.2903225806451615,-3.7298387096774195,3.842741935483871,-1.7701612903225807,127.86088709677419,-36.25403225806452,-25.858870967741936,93667.12096774194,4758.65,7167.2,719.1,-593.0,318.0,651.0,5.0,-10.0,-76.0,16.0,18.875,-0.625,128.1875,-36.4375,-26.5,93668.5,10.782879699952861,25.455615283515904,13.70305573801478,192.11866852468793,140.85935179904567,266.24669617819944,168.4980073906622,111.53211601698322,235.03576941228712,41.440728214802384,65.847578636053,13.90292223382498,2.8411828924753553,4.118806445107377,3.945823469120529,8.155486641862113,4750.0,7150.0,700.0,-936.0,261.0,590.0,32.0,-290.0,0.0,-77.1875,-147.0625,-6.25,126.1875,-38.875,-26.5,93652.75,4769.9,7240.0,751.7,92.0,573.0,1487.0,682.0,116.0,755.0,44.4375,132.625,29.3125,134.3125,-27.25,-19.5625,93677.25,4738.7,7146.9,693.1,-936.0,-10.0,376.0,-265.0,-290.0,-257.0,-77.1875,-147.0625,-30.6875,121.6875,-43.1875,-34.125,93652.75,LivingRoom ,EATING,1,0,2
4755.9546875,7172.3890625,729.6400568181818,-553.78125,264.25,720.875,25.75,-32.875,9.1875,-1.515625,19.28125,-4.87890625,125.318359375,-36.865234375,-23.330078125,93655.78125,4755.1,7167.049999999999,730.95,-562.0,261.0,687.5,-4.0,-39.0,-41.5,6.5625,25.96875,-1.75,125.34375,-35.8125,-22.125,93652.75,11.05058281469146,17.950333514625584,12.607757946355244,236.33706579661776,113.52731659342268,278.29408325401664,167.9462279536845,82.27520694242801,213.39762031203327,38.344082323007136,92.40460016172564,16.120513391047055,2.2755803592758874,9.465878202518205,5.735545347850366,12.798335010158864,4750.0,7150.0,750.0,-990.0,261.0,877.0,-54.0,-52.0,-257.0,-77.1875,-147.0625,9.5625,123.375,-36.5625,-23.0625,93652.75,4776.9,7219.6,747.1954545454545,92.0,494.0,1487.0,682.0,110.0,755.0,62.0,206.5,29.3125,129.6875,-24.6875,-15.5,93674.75,4738.7,7146.9,705.5,-990.0,-10.0,190.0,-265.0,-290.0,-257.0,-77.1875,-147.0625,-45.25,121.6875,-70.1875,-43.9375,93637.0,LivingRoom ,EATING,1,0,2
4745.682812499999,7198.34375,710.9127840909091,-667.9375,265.5625,466.8125,17.65625,-27.375,-4.03125,-9.98046875,7.767578125,-2.21484375,121.599609375,-46.95703125,-45.8671875,93659.5625,4746.95,7202.25,719.1204545454545,-632.0,265.0,607.5,-14.0,-9.5,1.0,-15.46875,12.75,-0.21875,123.03125,-40.9375,-23.75,93663.75,19.291756593940214,21.91848074997657,31.731475165504328,283.11093659439376,96.48196806289931,448.20692495837807,131.26668480738965,99.97636817542627,138.63027746724438,32.07630314048491,128.42767281921692,22.820018853162004,5.389956202668392,16.504103820515272,39.4913403826937,15.257599904267698,4750.0,7200.0,750.0,-949.0,236.0,877.0,-54.0,-52.0,55.0,-70.375,-247.125,9.5625,123.375,-74.375,-125.1875,93637.0,4776.9,7226.85,747.1954545454545,-126.0,446.0,1115.0,369.0,121.0,410.0,62.0,248.125,40.5,128.5625,-24.6875,-15.4375,93680.75,4711.8,7160.9,646.3,-1050.0,50.0,-214.0,-170.0,-278.0,-310.0,-70.375,-247.125,-62.25,107.0625,-74.375,-125.1875,93637.0,LivingRoom ,EATING,1,0,6
4696.7875,7222.7109375,686.7274147727272,-849.75,327.0625,96.15625,-22.65625,-13.0625,-10.59375,-18.21875,17.939453125,17.2265625,111.2421875,-59.552734375,-77.3125,93662.828125,4709.8,7224.375,687.5477272727273,-942.5,334.5,-116.0,-47.0,12.0,8.0,-22.71875,35.5625,21.90625,117.90625,-63.28125,-97.96875,93655.5,36.883690337373075,13.765212900261105,16.6432219683921,245.51841137189822,137.9532266456116,370.72545353018495,124.90244176827537,99.4893210349734,92.80880776298712,24.702861186640945,115.36095230024195,29.7783975591286,17.349465964519837,13.987331442084145,40.516200463518295,10.747549889580986,4650.0,7200.0,700.0,-1007.0,446.0,-218.0,-67.0,12.0,55.0,-70.375,-247.125,-62.25,123.9375,-77.75,-125.1875,93654.75,4746.45,7252.45,712.3,-126.0,598.0,999.0,369.0,121.0,144.0,29.375,248.125,59.75,128.0,-29.1875,-15.4375,93680.75,4631.65,7190.3,646.3,-1185.0,38.0,-218.0,-325.0,-278.0,-310.0,-70.375,-247.125,-62.25,66.8125,-77.75,-125.1875,93651.25,LivingRoom ,EATING,1,0,2
4654.8953125,7188.0484375,672.8531250000001,-850.8125,490.96875,-99.65625,-69.4375,-19.625,5.84375,-0.814453125,15.822265625,15.361328125,86.09765625,-54.21484375,-95.349609375,93652.453125,4658.174999999999,7223.5,670.55,-824.0,567.5,-131.5,-52.0,-8.0,13.5,-0.5,12.8125,11.375,79.25,-49.0625,-105.15625,93651.25,23.68424125384133,56.46806188996453,22.097689769411673,140.6907928527961,192.72786837922533,195.3611394274386,82.08686881747936,58.10044139524742,97.75615132035294,26.610899853667583,59.52397928755733,25.409730792460444,24.32411944281533,12.361724484588018,27.722627353532214,6.399797596345806,4650.0,7250.0,650.0,-800.0,38.0,-436.0,-67.0,-35.0,-18.0,-48.125,-114.6875,-36.1875,59.875,-45.3125,-102.3125,93645.25,4707.8,7252.45,712.3,-669.0,699.0,395.0,55.0,58.0,401.0,60.9375,179.9375,59.75,126.0,-42.25,-16.25,93668.25,4611.8,7089.55,635.4,-1185.0,38.0,-436.0,-325.0,-203.0,-165.0,-48.125,-114.6875,-36.1875,59.875,-77.75,-116.125,93645.25,LivingRoom ,EATING,0,0,0
4682.5171875,7142.4140625,683.771875,-719.5625,583.53125,95.4375,-37.53125,-27.6875,3.40625,-1.189453125,-34.40234375,-10.203125,86.505859375,-44.52734375,-81.759765625,93656.15625,4670.825,7133.05,676.175,-712.0,608.5,81.0,-25.0,-14.0,-3.0,-5.15625,-24.96875,-2.46875,91.3125,-44.4375,-90.96875,93658.75,44.12594988354356,36.10401021952342,35.99913515426223,118.33221073221861,95.88332438521982,327.6967458765261,101.12495763386808,62.09432860705791,96.90762457935342,22.372755588769763,45.101325041946545,25.003588452137645,20.36895912436941,3.7734795024544057,27.75459089719601,8.413398971763108,4650.0,7150.0,650.0,-800.0,596.0,-436.0,-40.0,-14.0,-36.0,-8.125,-114.9375,-85.25,59.875,-50.6875,-116.125,93645.25,4747.95,7227.05,767.85,-384.0,699.0,736.0,233.0,89.0,401.0,60.9375,24.125,12.875,121.5625,-35.5,-25.1875,93668.25,4611.8,7089.55,635.4,-968.0,367.0,-436.0,-276.0,-203.0,-165.0,-40.375,-114.9375,-85.25,59.875,-50.9375,-116.125,93645.25,LivingRoom ,EATING,0,0,2
4721.530645161291,7185.829032258064,729.0290322580644,-783.741935483871,367.3225806451613,342.5806451612903,-7.32258064516129,-11.516129032258064,8.0,-10.080645161290322,-12.22983870967742,-12.310483870967742,114.3991935483871,-55.36693548387097,-48.38911290322581,93661.65322580645,4727.55,7166.8,722.75,-789.0,367.0,308.0,-20.0,2.0,-2.0,-8.125,-24.8125,-1.9375,121.5625,-48.375,-48.75,93660.25,20.231364583320325,62.431115071190696,31.393589510688184,175.59099592365882,193.65336507908046,211.70746706931058,86.32627529583107,61.79367333729343,61.194771018445685,18.325331067583996,70.38246775634623,27.711419708453487,11.855155319998566,14.730908742471804,20.888772338551348,3.070475953438679,4750.0,7150.0,700.0,-1086.0,596.0,44.0,56.0,4.0,-19.0,-28.875,-104.125,4.5,124.25,-78.9375,-16.6875,93658.75,4747.95,7338.15,783.5,-384.0,633.0,743.0,233.0,89.0,153.0,33.5,132.8125,26.9375,126.75,-35.5,-16.6875,93668.25,4669.7,7124.45,680.45,-1086.0,66.0,44.0,-148.0,-159.0,-112.0,-40.375,-114.9375,-85.25,93.125,-78.9375,-86.8125,93658.75,LivingRoom ,EATING,0,0,0
4751.346774193549,7314.393548387096,719.841935483871,-783.8709677419355,133.67741935483872,474.96774193548384,-4.741935483870968,-10.935483870967742,25.0,11.606854838709678,-26.743951612903224,-16.3125,130.8125,-57.391129032258064,-23.93951612903226,93647.8629032258,4742.15,7355.85,718.3,-882.0,148.0,448.0,-19.0,4.0,28.0,2.4375,7.25,-17.1875,126.25,-61.0625,-17.8125,93659.75,38.56416284471864,88.98282956272656,36.204811136952024,300.8513189750583,100.30732346037823,286.8440324021596,91.67804816928113,47.760468649201904,82.96103503050895,32.49846227751747,96.44880895405558,26.310297809666338,9.14091078613067,20.054599740860674,20.519943829310662,17.08335431417542,4750.0,7400.0,700.0,-1086.0,204.0,448.0,-119.0,-31.0,85.0,-3.125,-212.9375,-100.6875,124.25,-78.9375,-17.8125,93625.0,4825.75,7417.9,783.5,180.0,322.0,1109.0,166.0,74.0,191.0,81.875,132.8125,26.9375,158.5,0.0,-2.5,93665.0,4701.7,7165.7,663.65,-1086.0,-47.0,44.0,-136.0,-104.0,-170.0,-39.875,-212.9375,-100.6875,123.4375,-78.9375,-71.0,93625.0,LivingRoom ,EATING,0,0,1
4786.21875,7371.51875,758.0015625,-354.125,177.875,713.28125,-51.59375,-33.46875,-28.4375,23.13671875,-39.423828125,-4.873046875,158.65234375,-20.083984375,-14.142578125,93645.484375,4784.85,7369.325,751.65,-224.0,174.0,640.5,-31.5,-31.0,0.5,15.90625,-18.65625,-13.875,155.125,0.65625,-11.5625,93654.75,31.95151001025596,25.791820877819937,82.95171300840161,472.77838701214597,160.01365869119402,265.65272435959963,135.4923779251307,99.82564942066776,172.7855163994348,53.22987143587365,81.38967172127508,71.36814180297131,25.660130018287973,32.336883657850535,9.330799491304344,14.65503016967872,4750.0,7350.0,700.0,-1006.0,-137.0,312.0,-119.0,-104.0,-315.0,-3.125,-212.9375,-144.4375,193.75,-68.9375,-31.25,93625.0,4836.8,7417.9,955.8,351.0,439.0,1409.0,166.0,182.0,434.0,125.3125,94.1875,125.4375,194.3125,18.0625,-2.5,93660.25,4710.65,7335.45,663.65,-1006.0,-137.0,312.0,-323.0,-301.0,-315.0,-95.875,-212.9375,-144.4375,124.0,-68.9375,-31.25,93625.0,LivingRoom ,EATING,7,0,1
4757.5546875,7344.30625,934.6062499999999,-116.03125,352.59375,784.40625,-74.625,-51.0625,-63.34375,15.447265625,8.19921875,17.578125,156.005859375,-0.25,-25.08203125,93655.671875,4753.475,7339.174999999999,958.425,-50.0,380.5,781.5,-70.0,-47.0,-100.0,6.125,11.03125,20.59375,148.0,2.90625,-28.375,93656.875,44.856751136031214,17.08667538775321,131.41797868240002,402.5705695999951,150.82159068827625,231.5256356425297,245.7287712748714,111.19437717856525,200.673962721914,51.55156924553478,92.69129418405551,74.37194863624062,27.451526006479593,12.836302634426342,10.062636964355383,5.6363013710376855,4750.0,7350.0,1100.0,-1287.0,-137.0,326.0,-14.0,-121.0,-149.0,-95.875,-241.5,-144.4375,193.75,-29.5625,-28.375,93658.75,4836.8,7392.5,1109.0,383.0,611.0,1409.0,470.0,182.0,434.0,125.3125,184.4375,125.4375,194.3125,18.0625,-5.9375,93665.25,4684.7,7306.1,751.9,-1287.0,-137.0,326.0,-790.0,-301.0,-422.0,-95.875,-241.5,-144.4375,123.9375,-29.5625,-40.0625,93645.5,LivingRoom ,EATING,3,0,1
4685.653125,7301.362499999999,1041.046875,-338.0,420.09375,692.8125,-41.0625,-49.15625,-34.59375,3.99609375,20.826171875,-20.572265625,135.888671875,-18.267578125,-31.900390625,93653.15625,4681.575,7299.05,1055.5,-306.0,460.5,711.5,-28.5,-33.0,-10.0,6.125,28.9375,2.90625,130.78125,-14.625,-35.28125,93657.25,39.27922158067635,36.655479720614565,54.684793158816824,414.00771381312956,180.24309022145798,201.23657037940325,245.9067404525545,81.00183565223851,147.06019381477338,35.19981462983574,90.63757523204883,70.51231037670684,16.347341317133527,17.98476221609577,13.261168255920923,9.890478885304047,4650.0,7350.0,1100.0,-1287.0,-76.0,228.0,-107.0,-216.0,-198.0,-63.9375,-241.5,-70.9375,124.9375,-46.75,-28.375,93658.75,4747.65,7354.3,1109.0,383.0,623.0,998.0,470.0,91.0,347.0,94.75,184.4375,90.9375,173.25,13.25,6.0625,93665.25,4623.9,7245.85,945.5,-1287.0,-76.0,228.0,-790.0,-216.0,-422.0,-63.9375,-241.5,-168.125,117.4375,-47.9375,-49.625,93637.5,LivingRoom ,EATING,5,0,0
4655.25,7305.606249999999,959.53125,-516.1875,129.40625,720.9375,-31.28125,-33.46875,-4.21875,-2.830078125,7.98046875,-26.083984375,155.458984375,-30.830078125,-11.271484375,93655.078125,4653.875,7285.9,937.9,-440.0,-36.5,737.5,-16.0,-20.0,2.0,-2.71875,-0.4375,-5.46875,165.4375,-30.875,6.09375,93656.75,15.14111578110327,46.41403561007055,85.87092033789679,264.16324834123606,333.2949734312177,171.45806173955154,132.1597846145144,77.0437598214116,100.34673255204162,30.55164946238962,60.28103587082991,58.72480072426459,21.507627171684923,13.128985899902117,24.451836141057033,10.735161833748673,4650.0,7250.0,850.0,-1014.0,-140.0,730.0,80.0,-30.0,-198.0,-63.9375,-85.8125,-70.9375,173.875,-46.75,-49.625,93637.5,4704.95,7388.5,1095.6,-73.0,623.0,1104.0,240.0,116.0,322.0,50.6875,185.875,46.125,175.125,-2.9375,12.75,93669.0,4623.9,7245.85,856.85,-1014.0,-323.0,228.0,-339.0,-211.0,-198.0,-63.9375,-85.8125,-168.125,117.4375,-47.9375,-49.625,93637.5,LivingRoom ,EATING,0,0,0
4696.0640625,7347.325000000001,881.4328125000001,-617.5,-23.59375,737.15625,-10.5,-21.875,-3.25,-4.79296875,-5.818359375,12.076171875,160.11328125,-38.880859375,-0.7109375,93657.546875,4700.9,7348.55,879.3,-629.5,-19.5,750.0,-22.5,-18.0,4.5,-3.71875,-5.46875,3.5625,164.34375,-37.6875,4.53125,93656.75,43.133501002934636,29.73177403211539,22.135869334397416,251.65298688164148,150.17449192254173,214.66584826490293,185.7415825384046,62.60668314320404,142.7302893007331,34.23785485416867,74.9729191017184,29.8875316811827,11.944305794068475,9.991419698142272,11.35090000606034,8.096304787350673,4650.0,7350.0,900.0,-1270.0,-140.0,738.0,115.0,-18.0,26.0,-107.1875,-227.0625,-49.3125,146.3125,-60.25,-8.0,93648.75,4765.95,7392.9,930.3,-23.0,234.0,1220.0,578.0,116.0,457.0,73.75,185.875,91.4375,175.125,-24.5,12.75,93669.0,4643.45,7272.7,839.7,-1270.0,-323.0,205.0,-379.0,-211.0,-331.0,-107.1875,-227.0625,-49.3125,141.8125,-60.25,-26.25,93648.75,LivingRoom ,EATING,2,0,1
4746.465625,7315.915625,823.3421874999999,-723.375,178.4375,570.9375,-7.96875,2.6875,-31.96875,1.748046875,1.810546875,21.83203125,145.3828125,-48.296875,-17.404296875,93657.3515625,4757.775,7319.825,831.6500000000001,-708.0,167.0,593.0,-28.0,1.5,-27.5,6.375,1.125,9.03125,144.21875,-48.09375,-18.09375,93656.75,24.283113200196333,41.40118129353313,61.271120268291575,265.25626683789056,129.08660196337811,245.38776916966444,189.01825895331365,54.980018364446174,145.6136036659372,35.31510119014686,106.6537649391682,32.90339919834186,7.859235212474557,12.692986061651936,10.319236367455165,5.794832018704252,4750.0,7300.0,750.0,-371.0,64.0,517.0,82.0,-63.0,-331.0,-107.1875,-227.0625,-49.3125,141.25,-38.9375,-8.0,93648.75,4775.45,7392.9,906.95,-23.0,453.0,1220.0,578.0,150.0,457.0,73.75,221.0625,91.4375,164.125,-27.5625,2.9375,93666.0,4700.15,7254.55,729.95,-1270.0,-59.0,159.0,-379.0,-99.0,-331.0,-107.1875,-227.0625,-49.3125,126.9375,-71.4375,-38.0625,93648.75,LivingRoom ,EATING,2,0,1
4736.7890625,7248.4375,808.2421875,-613.96875,449.21875,504.8125,-27.46875,-11.15625,-10.28125,14.228515625,0.8671875,20.30078125,129.134765625,-39.208984375,-38.91796875,93659.3046875,4735.75,7258.625,787.675,-514.5,431.0,469.0,-29.0,-8.0,-4.0,10.65625,-12.03125,10.15625,125.15625,-33.46875,-39.0625,93659.25,28.104952308339357,40.41875762244475,64.85359953371777,243.26137335411275,232.98203369400298,163.2801743096223,101.97532414202452,72.20629468360417,94.94352629581373,17.301535987418617,90.39375077366495,23.898651082508987,12.315831886813985,17.037898113344724,16.463389839735953,4.495846817772039,4750.0,7250.0,750.0,-378.0,38.0,159.0,-15.0,-78.0,-79.0,-10.9375,-216.9375,-3.3125,116.5625,-23.8125,-59.0625,93666.0,4775.45,7318.7,940.05,-343.0,777.0,812.0,290.0,150.0,168.0,55.25,221.0625,81.6875,146.875,-21.6875,-7.625,93666.0,4673.6,7183.3,729.95,-1126.0,38.0,159.0,-195.0,-145.0,-254.0,-10.9375,-216.9375,-5.5625,115.4375,-71.4375,-59.0625,93652.75,LivingRoom ,EATING,1,0,0
4684.503124999999,7222.1953125,915.5765624999999,-483.125,679.34375,472.90625,-33.65625,-29.4375,1.15625,9.779296875,-0.283203125,1.505859375,122.12109375,-27.767578125,-56.21875,93658.359375,4688.875,7216.725,938.55,-454.5,709.0,462.0,-29.0,-22.5,-2.5,5.78125,-1.40625,-2.75,120.59375,-29.40625,-57.71875,93659.25,36.69685962106827,28.207995776120715,85.65047029640857,108.91954710673141,93.37873259802204,92.03062581939601,64.73599456203236,53.80726506888775,46.91867320333441,15.21995970696384,24.633206346986494,22.671809086657483,5.61416827844244,4.388178147406622,5.302611765183085,4.978962800073538,4700.0,7200.0,1000.0,-595.0,769.0,463.0,-15.0,-24.0,31.0,-7.3125,-46.375,-3.3125,116.5625,-29.6875,-58.6875,93652.75,4735.45,7270.7,1017.1,-315.0,777.0,767.0,56.0,145.0,168.0,55.25,45.0,43.0,131.8125,-21.6875,-40.0625,93666.0,4622.5,7183.3,762.2,-703.0,398.0,326.0,-164.0,-145.0,-79.0,-7.3125,-46.375,-43.5,115.4375,-34.3125,-61.875,93648.0,LivingRoom ,EATING,0,0,0
4684.734375,7189.675,949.3703125,-452.90625,685.0,492.59375,-42.125,-25.1875,-8.125,-5.0234375,-8.314453125,6.4921875,122.392578125,-25.3125,-54.822265625,93649.09375,4688.75,7201.200000000001,944.625,-467.5,676.5,463.0,-48.5,-25.5,-10.5,-0.53125,-14.53125,5.78125,125.15625,-29.5625,-56.875,93650.25,38.29681077747606,50.347029575703516,46.80091476114371,192.22774788373195,46.292896410405305,119.33413630939673,61.033438745996364,23.894171917287764,37.4335971227504,12.066106033785232,25.765837814439294,27.366546372954417,7.463979941444125,9.988059908000475,5.536833894961374,10.812878745930409,4700.0,7200.0,950.0,-639.0,769.0,463.0,-158.0,-33.0,-18.0,-33.375,-36.875,-43.5,127.125,-29.6875,-57.125,93628.75,4753.15,7270.7,1017.1,-64.0,769.0,684.0,56.0,35.0,95.0,9.5,45.0,47.5625,131.8125,-2.125,-46.6875,93659.5,4622.5,7104.55,864.75,-716.0,614.0,290.0,-158.0,-87.0,-81.0,-33.375,-41.8125,-43.5,107.5,-36.3125,-61.875,93628.75,LivingRoom ,EATING,0,0,0
4731.2875,7182.3890625,893.853125,-116.84375,674.21875,574.46875,-42.40625,-34.65625,-14.5625,-5.009765625,-23.923828125,15.2890625,113.369140625,-4.87890625,-50.27734375,93650.171875,4726.775,7180.625,893.075,-26.5,680.5,604.5,-38.0,-38.5,-19.0,0.96875,-25.15625,8.625,109.40625,-0.90625,-49.28125,93650.25,43.15227164805008,57.75564591082513,40.487052764214106,336.6775148297484,30.618078546358323,98.03652524573718,44.56445811876719,22.14411649087157,34.121166924038,11.63510995275297,12.81007288552291,18.226390149534947,7.215021980645631,19.29001220690491,3.5985876450789016,12.549488728179712,4700.0,7200.0,900.0,-639.0,708.0,646.0,-158.0,-33.0,-34.0,-33.375,-36.875,-18.875,107.5,-36.3125,-47.875,93628.75,4840.35,7284.4,962.8,293.0,724.0,684.0,34.0,35.0,95.0,5.75,8.5625,47.5625,127.125,18.5625,-46.6875,93664.0,4677.95,7103.9,799.85,-716.0,614.0,290.0,-158.0,-87.0,-81.0,-33.375,-47.4375,-18.875,107.25,-36.3125,-61.0,93628.75,LivingRoom ,EATING,1,0,0
4826.2359375,7242.635937499999,776.58125,249.78125,688.3125,557.0625,-31.5,-35.5625,-26.34375,0.9765625,-14.802734375,4.724609375,109.095703125,16.8046875,-51.107421875,93655.359375,4849.4,7262.8,788.1500000000001,284.0,687.0,548.0,-31.5,-38.0,-25.0,0.84375,-11.09375,3.375,109.3125,18.875,-51.75,93660.25,87.52561305714022,51.23195234449126,109.22001304706019,108.71113970132633,12.332588614540091,43.14561802592136,21.46414865349555,11.018862127309024,11.471168275851559,2.0839699968043313,12.795500222787732,3.9235017229395064,0.845705525843087,6.71240557541564,1.642295856167051,8.76690475319613,4900.0,7250.0,900.0,341.0,688.0,519.0,-38.0,-45.0,-34.0,-0.75,-47.4375,2.375,109.375,0.3125,-52.6875,93660.25,4922.3,7296.9,910.25,378.0,714.0,646.0,23.0,-9.0,-8.0,5.375,0.375,19.1875,110.375,23.9375,-47.5,93664.0,4677.95,7103.9,606.65,11.0,667.0,495.0,-81.0,-54.0,-61.0,-3.1875,-47.4375,0.625,107.25,0.3125,-52.75,93643.25,LivingRoom ,EATING,0,0,0
4915.815624999999,7259.1578125,671.1765625,359.90625,689.03125,525.375,-23.3125,-26.28125,-20.40625,-0.015625,-2.876953125,1.578125,108.146484375,23.12109375,-52.56640625,93653.8828125,4911.475,7255.6,659.0,375.5,691.5,524.0,-20.5,-24.5,-21.5,-0.1875,-2.15625,1.25,108.34375,23.84375,-52.625,93656.0,24.933315701182604,17.03657881269383,48.568111442516916,32.25039072031381,10.504943152876235,13.324123163064657,13.936347232813496,11.413727939804373,13.70862543402228,1.0962959998808892,4.760744542880931,1.3750916391750159,1.610403533301689,1.5568800140101335,0.28572272362972306,6.634460492626798,4900.0,7250.0,650.0,341.0,686.0,513.0,-14.0,-19.0,-23.0,-0.75,-4.5,0.375,106.0,23.9375,-52.6875,93660.25,4972.55,7296.9,776.45,393.0,714.0,552.0,-7.0,-12.0,6.0,2.0625,5.0,4.75,110.375,24.5625,-51.8125,93660.25,4858.45,7237.0,606.65,278.0,667.0,495.0,-70.0,-48.0,-61.0,-3.1875,-14.5,-0.5625,105.625,19.1875,-53.0,93643.25,LivingRoom ,EATING,0,0,0
4964.9828125,7269.821875,703.9921875,392.96875,690.53125,525.1875,-13.59375,-19.40625,-11.28125,0.009765625,-1.814453125,0.361328125,106.1953125,24.701171875,-52.892578125,93658.671875,4975.825000000001,7259.799999999999,726.425,390.5,692.0,524.0,-12.0,-18.0,-13.0,-0.0625,-2.03125,0.375,106.03125,24.53125,-52.8125,93657.5,42.53007590342167,29.4662900274851,47.86357479163751,14.45456591553173,6.763203931522015,14.32443772470781,8.541584709808754,6.776902780055398,9.629371650689196,0.8383916436457848,3.3092263333219156,1.1504441611365348,0.9115010550663651,0.6796165262350929,0.39504056772844187,5.524300240316532,5000.0,7250.0,750.0,400.0,686.0,517.0,-7.0,-15.0,-14.0,-0.8125,-3.25,-0.1875,106.0,24.125,-53.0,93651.5,5012.85,7334.65,752.35,426.0,702.0,554.0,-2.0,-6.0,12.0,2.0625,5.0,2.25,108.3125,26.3125,-52.3125,93668.5,4900.4,7237.0,622.55,363.0,678.0,498.0,-33.0,-37.0,-33.0,-1.4375,-9.375,-2.9375,104.75,23.8125,-53.8125,93651.5,LivingRoom ,EATING,0,0,0
4994.3328125,7329.860937500001,750.7140625000001,411.34375,686.15625,515.75,-12.6875,-21.28125,-10.75,-0.2421875,-1.9140625,0.091796875,105.671875,25.73828125,-53.29296875,93657.8828125,4992.299999999999,7338.075,749.475,414.0,686.0,513.0,-10.0,-20.0,-12.5,-0.15625,-1.65625,0.125,105.8125,26.15625,-53.40625,93657.5,11.03841977773611,42.06932591525222,8.350673474626984,16.241343848339643,6.20150541036922,13.881991118688804,9.071179103213685,6.61003330722173,8.092210511828146,0.6604369124470411,2.6754818491254992,1.1331452862132634,0.4103008337714516,0.7041491197629258,0.39158149025211153,6.105584558616755,5000.0,7350.0,750.0,400.0,688.0,510.0,-7.0,-25.0,-18.0,-0.8125,-3.25,-0.1875,105.8125,26.3125,-53.5,93650.25,5012.85,7384.3,770.45,442.0,702.0,554.0,5.0,-6.0,12.0,1.125,2.6875,2.25,106.1875,26.375,-52.5,93668.5,4977.75,7260.65,730.4,363.0,676.0,497.0,-33.0,-37.0,-23.0,-1.4375,-9.375,-2.9375,104.75,24.25,-53.8125,93650.25,LivingRoom ,EATING,0,0,0
4984.430645161289,7367.500000000002,763.8887096774195,359.06451612903226,668.5483870967741,543.7096774193549,-5.838709677419355,-34.774193548387096,-11.193548387096774,-1.1129032258064515,14.308467741935484,-9.893145161290322,104.98387096774194,22.151209677419356,-51.71774193548387,93650.28225806452,4986.85,7367.9,760.7,415.0,678.0,510.0,-12.0,-26.0,-14.0,-0.375,0.875,-0.625,105.1875,26.25,-53.375,93650.25,9.077588496028305,10.120433126436119,16.835670017740203,123.83562639883321,23.78071867385764,66.49871855827354,23.160450159979693,20.252916954386848,13.871840432662399,4.495959394128901,23.102370321006557,22.35334842523358,1.6050836996230753,8.450557399538992,3.1562549904144515,8.815172038282414,5000.0,7350.0,750.0,414.0,645.0,510.0,-20.0,-26.0,-21.0,-0.375,-1.25,-1.0,105.125,26.3125,-53.5,93639.5,4999.05,7384.3,818.55,442.0,692.0,716.0,64.0,-15.0,32.0,15.0,69.75,1.0,109.0625,26.5,-45.0,93660.75,4953.0,7341.5,743.65,-32.0,609.0,497.0,-25.0,-85.0,-45.0,-11.0625,-2.625,-90.375,101.125,-3.8125,-53.75,93637.75,LivingRoom ,EATING,0,0,0
4907.904838709677,7378.47258064516,814.9612903225806,-195.4516129032258,589.5806451612904,542.9677419354839,-1.3225806451612903,9.03225806451613,-9.709677419354838,2.1794354838709675,22.171370967741936,-39.84274193548387,124.34677419354838,-12.860887096774194,-45.483870967741936,93646.91129032258,4940.35,7372.75,832.9,-153.0,612.0,548.0,-15.0,-33.0,-15.0,0.1875,20.5,-27.5625,113.9375,-9.4375,-46.25,93639.5,90.83637978515604,19.383454450938643,45.40844031248929,524.1918757293413,83.50719497685948,180.25953213278677,144.12295378062305,96.03766062365595,133.30196136301146,15.833547766657738,74.24180644982177,37.74268303456777,22.625522776589683,32.81322503039226,6.848604019515877,13.790629123172854,5000.0,7350.0,850.0,416.0,645.0,493.0,-18.0,-50.0,-45.0,-47.375,69.75,-101.375,105.125,26.4375,-53.375,93630.0,4993.15,7427.05,897.55,424.0,682.0,747.0,554.0,276.0,406.0,39.9375,240.0,-0.1875,165.5,26.5,-30.0,93666.75,4727.55,7354.6,753.45,-1260.0,382.0,-308.0,-371.0,-126.0,-559.0,-47.375,-285.1875,-101.375,101.125,-65.0625,-53.375,93630.0,LivingRoom ,EATING,5,0,1
4741.571875,7386.2765625,875.403125,-591.1875,329.875,619.28125,2.0625,13.15625,-1.09375,-2.21484375,7.8515625,-11.646484375,150.1171875,-37.654296875,-28.04296875,93649.234375,4717.675,7388.7,871.5,-563.0,444.5,586.0,-6.5,-6.0,2.0,-2.78125,13.125,-11.8125,152.875,-43.1875,-35.3125,93645.5,113.1601804590831,28.134802189708644,33.40093425750535,253.07558956220583,274.70673512416954,284.96680444763524,171.6910085571019,102.77696157527309,163.83299115848274,39.099242195947724,106.16079598578129,63.73014912586182,16.446652440910178,14.443272170169848,19.760597385893448,13.329711159540338,4650.0,7400.0,850.0,-1260.0,470.0,366.0,-8.0,-79.0,-559.0,-83.5625,65.25,-101.375,113.9375,-65.0625,-52.5625,93645.5,4940.35,7427.05,941.95,-148.0,628.0,1195.0,554.0,276.0,406.0,99.0625,240.0,119.0625,169.125,-9.4375,6.3125,93666.75,4604.85,7303.75,832.9,-1260.0,-191.0,-308.0,-371.0,-152.0,-559.0,-83.5625,-285.1875,-101.375,113.9375,-65.0625,-52.5625,93630.0,LivingRoom ,EATING,1,1,2
4637.2140625,7323.69375,919.0265625,-547.6875,305.21875,666.84375,38.96875,-1.15625,7.3125,-2.578125,-7.1328125,17.41796875,144.640625,-36.626953125,-26.396484375,93655.234375,4626.375,7299.95,935.55,-551.5,407.5,619.0,44.0,-13.5,3.5,-4.21875,5.9375,2.46875,134.84375,-40.1875,-35.5,93653.5,27.2418298920417,67.18430326228524,31.745002106948455,288.4321844038907,268.5971602154544,287.1413172789832,195.84102907551022,97.96645554112041,159.8609148502979,37.97494266172485,106.63779532905362,41.010633816895684,16.37040535145565,11.27734673979954,18.412853328184415,8.882053648573006,4600.0,7250.0,950.0,-1069.0,406.0,614.0,-283.0,-79.0,-267.0,-22.625,-241.0,-46.9375,132.625,-52.9375,-38.75,93645.5,4707.8,7417.7,955.7,18.0,857.0,1195.0,506.0,326.0,402.0,99.0625,155.4375,119.0625,169.125,-13.9375,6.3125,93667.25,4604.85,7233.65,865.6,-1069.0,-191.0,182.0,-283.0,-183.0,-267.0,-83.5625,-241.0,-46.9375,129.0,-52.9375,-47.875,93645.5,LivingRoom ,EATING,2,1,1
4664.953125,7277.328125,899.4546875000001,-600.0625,473.125,522.75,49.5,14.28125,-23.1875,4.494140625,1.33203125,-3.7421875,133.33203125,-41.896484375,-41.3828125,93657.296875,4677.275,7273.950000000001,903.575,-527.5,481.5,614.0,53.0,12.5,-1.0,5.71875,-1.875,-4.4375,132.625,-40.4375,-38.21875,93660.75,40.81735663688403,21.795560133482695,48.641133793049974,373.39462282528746,143.99770383473975,452.35327330634817,254.07733138275174,121.04470898218,325.10856127285115,27.332856052812705,150.51129210723465,23.219541649552916,3.8222356359932146,9.303011367713816,9.214140796894737,8.666406569194676,4700.0,7250.0,950.0,-1455.0,406.0,614.0,-618.0,73.0,-746.0,-64.375,-316.75,-64.5,132.625,-42.875,-38.9375,93642.25,4731.55,7311.55,955.7,18.0,857.0,1139.0,506.0,326.0,558.0,62.4375,329.625,46.25,143.3125,-25.375,-30.25,93667.25,4607.25,7233.65,800.75,-1455.0,166.0,-353.0,-618.0,-221.0,-746.0,-64.375,-316.75,-64.5,128.0,-58.5,-62.5,93642.25,LivingRoom ,EATING,5,0,6
4710.770312500001,7305.0859375,839.453125,-681.5625,450.71875,455.21875,28.28125,6.90625,-40.90625,16.13671875,1.69921875,-22.259765625,148.001953125,-46.87890625,-44.046875,93655.34375,4712.275,7300.975,828.925,-681.5,445.0,386.5,15.0,4.0,-44.5,21.0,-2.28125,-20.15625,139.28125,-46.71875,-41.96875,93655.75,17.519578262042717,25.963986330868256,29.95736738912644,331.6389347837737,139.23320756453785,475.516543206336,222.31686691413256,114.84473652747224,348.9209504129793,36.67755517759388,142.06904489548427,30.00282710710947,20.922677615510175,8.295283491274112,8.550829402329457,9.962783569445484,4700.0,7300.0,800.0,-920.0,166.0,-353.0,-618.0,-221.0,-119.0,-64.375,-316.75,-84.625,136.375,-50.125,-35.9375,93642.25,4744.55,7365.95,903.05,-98.0,797.0,1288.0,506.0,275.0,558.0,87.125,329.625,46.25,194.5,-31.4375,-31.0625,93667.25,4676.2,7264.35,800.6,-1455.0,166.0,-353.0,-618.0,-221.0,-746.0,-64.375,-316.75,-84.625,128.0,-60.625,-62.5,93642.25,LivingRoom ,EATING,4,0,6
4737.3625,7338.321875,805.1140625,-745.65625,337.90625,475.5,-4.25,-9.78125,-40.625,-3.1171875,13.591796875,-2.037109375,175.748046875,-49.400390625,-35.4453125,93647.609375,4738.9,7343.925,806.725,-852.0,340.5,397.0,-19.0,-0.5,-46.0,9.40625,-4.25,-14.34375,179.3125,-49.46875,-35.5,93654.5,19.561388070017138,29.35016331630108,21.086187324097626,342.01590317438973,173.37398684495932,296.1257361542614,235.28527639935862,111.6780321410761,222.57680805481726,56.5915053281181,124.21176675377622,63.842169020212594,24.167627413799806,11.871889017103614,9.986403937798178,18.42858245252948,4750.0,7350.0,800.0,-920.0,329.0,397.0,-79.0,-312.0,-119.0,-145.625,-205.5625,-84.625,136.375,-60.125,-53.6875,93612.5,4767.2,7378.7,840.55,8.0,797.0,1288.0,506.0,275.0,544.0,87.125,428.75,169.625,206.75,-22.1875,-10.8125,93666.5,4706.75,7283.85,760.25,-1321.0,-81.0,-278.0,-562.0,-312.0,-668.0,-145.625,-205.5625,-84.625,136.375,-72.4375,-53.6875,93612.5,LivingRoom ,EATING,4,0,2
4758.4171875,7364.4703125,757.8328124999999,-803.375,235.90625,470.0,-29.8125,-20.90625,-8.1875,-24.1328125,8.24609375,23.84765625,168.380859375,-53.298828125,-29.375,93646.0078125,4756.625,7363.975,754.175,-837.0,235.5,409.5,-20.5,1.5,-42.5,3.1875,-1.78125,13.09375,158.21875,-53.6875,-26.46875,93653.25,12.229067760311477,17.908255707350104,35.42943147180495,366.1064317310455,144.09749373813864,268.96971888563843,250.7928637020419,121.7070410068586,233.717148804193,50.418807369797456,138.48439680935977,52.41545356624746,25.011657359614297,14.395993912179389,13.86965895457163,17.720555356908488,4750.0,7350.0,800.0,-1499.0,198.0,-137.0,-562.0,-312.0,-326.0,-145.625,-257.1875,-43.9375,141.6875,-60.125,-27.875,93653.25,4790.65,7396.9,815.6,8.0,507.0,1130.0,399.0,153.0,641.0,49.3125,428.75,169.625,206.75,-22.1875,-10.8125,93663.25,4731.7,7323.15,687.5,-1499.0,-81.0,-137.0,-562.0,-312.0,-326.0,-145.625,-257.1875,-43.9375,141.6875,-83.125,-89.75,93612.5,LivingRoom ,EATING,3,0,2
4782.495454545455,7320.034848484848,716.7696969696971,-785.030303030303,254.72727272727272,535.6060606060606,-18.333333333333332,8.181818181818182,12.878787878787879,-6.856060606060606,-20.90340909090909,3.3106060606060606,145.2973484848485,-51.952651515151516,-27.054924242424242,93654.47727272728,4790.1,7312.65,719.65,-747.0,262.0,574.0,-21.0,41.0,-40.0,-1.3125,-2.1875,0.6875,144.6875,-49.5,-24.875,93652.25,21.809610709918292,54.45062770076733,18.93114554854785,220.2870974501918,136.27987579042824,270.8458901518006,164.36424236027332,114.2916922137865,229.67786647494975,38.014913695720615,85.1819572591937,20.634186429835612,3.00236033054841,9.956853087890057,13.77322929131977,9.054816492041429,4800.0,7250.0,700.0,-550.0,-35.0,598.0,-21.0,-263.0,-40.0,-81.5625,-257.1875,-41.3125,142.9375,-51.125,-20.3125,93642.25,4814.25,7396.9,748.1,-399.0,502.0,1130.0,276.0,182.0,641.0,49.3125,159.375,43.9375,156.25,-42.1875,-12.5625,93667.25,4745.35,7241.1,677.8,-1499.0,-35.0,-137.0,-469.0,-263.0,-246.0,-81.5625,-257.1875,-41.3125,141.6875,-83.125,-89.75,93642.25,LivingRoom ,EATING,0,0,2
4784.0375,7259.254687500001,754.8203125,-532.84375,178.15625,737.25,-6.28125,11.40625,-21.15625,-7.09765625,-19.6875,-2.380859375,143.21875,-33.701171875,-14.171875,93657.6484375,4791.075000000001,7255.15,726.3499999999999,-559.0,190.0,719.0,-29.5,7.5,-49.0,-3.625,-17.9375,-1.40625,143.21875,-42.3125,-14.46875,93653.5,24.924262696572196,23.03166599724969,59.90181732847538,265.7376962071506,168.75294202931215,237.6404168948024,138.6136972180297,104.59687880836414,183.42548972882167,34.7486145635722,54.17735213048869,23.19423136890082,2.9411653522085865,15.020464319747122,10.261794944544105,8.034918595398302,4800.0,7250.0,700.0,-922.0,-157.0,328.0,-281.0,-68.0,-127.0,-68.5,-147.125,-41.3125,142.9375,-49.5,-29.0625,93666.75,4814.25,7312.65,867.65,262.0,502.0,1352.0,502.0,182.0,401.0,49.1875,102.5,65.1875,149.0625,-9.4375,0.6875,93667.25,4722.55,7229.1,677.8,-922.0,-157.0,328.0,-281.0,-185.0,-289.0,-68.5,-147.125,-41.3125,136.4375,-51.125,-29.0625,93648.0,LivingRoom ,EATING,1,0,1
4737.148387096773,7233.604838709676,838.7645161290324,-294.51612903225805,-73.06451612903226,900.1290322580645,3.193548387096774,4.774193548387097,-19.548387096774192,-11.6875,-13.59274193548387,2.7358870967741935,140.0584677419355,-17.528225806451612,4.69758064516129,93655.71774193548,4726.8,7237.9,844.95,-298.0,-64.0,916.0,-34.0,7.0,-22.0,-5.9375,-25.3125,4.25,139.125,-16.0,3.375,93653.5,32.83860401994112,19.615977139561107,44.76029712730615,218.59503973752345,181.0819216973119,196.56902806825627,168.1605223895388,91.40922990501537,159.8845080487115,28.9901429009356,87.52666092481678,22.46930608767943,3.976262099290999,8.778107217996665,9.343615478047719,11.543710758006547,4700.0,7250.0,850.0,-173.0,-176.0,402.0,-269.0,-27.0,-169.0,-68.5,-250.1875,-33.1875,138.4375,-40.25,17.0,93666.75,4795.7,7260.1,897.35,262.0,285.0,1352.0,502.0,181.0,401.0,29.0,199.0,65.1875,149.0625,-4.25,17.0,93668.75,4691.95,7185.65,733.1,-805.0,-393.0,402.0,-269.0,-185.0,-289.0,-68.5,-250.1875,-33.1875,134.625,-40.25,-8.8125,93638.0,LivingRoom ,EATING,2,0,0
4706.809375,7205.4703125,857.83125,-394.3125,-183.375,788.46875,-3.5625,8.59375,-19.34375,2.8046875,6.224609375,7.05078125,138.666015625,-25.80859375,12.74609375,93651.21875,4707.275,7193.925,853.425,-307.0,-185.0,883.5,-10.5,18.5,-30.5,5.46875,-20.3125,8.5,138.34375,-15.90625,14.0625,93652.625,10.799555229043534,23.653069975249167,19.681228775892837,395.1743949439979,127.8768939253687,328.55588068678816,233.01944228727132,91.12942210164972,183.51858644993058,30.04127599834719,153.11931018014712,14.895921156876977,2.1841627409101734,23.059180182751618,5.378912152335296,11.561851551128072,4700.0,7200.0,850.0,-1592.0,-176.0,954.0,211.0,100.0,-48.0,-51.75,-400.125,-24.5625,141.0,-85.9375,17.0,93638.0,4728.05,7244.85,897.35,170.0,105.0,1225.0,460.0,144.0,532.0,60.375,264.875,29.6875,142.4375,-1.6875,20.25,93668.75,4687.95,7180.0,835.2,-1592.0,-393.0,-143.0,-614.0,-207.0,-301.0,-51.75,-400.125,-24.5625,134.625,-85.9375,-2.1875,93638.0,LivingRoom ,EATING,3,0,1
4688.8609375,7194.515625,822.2890625,-650.25,-53.6875,520.625,4.53125,20.65625,-21.09375,6.84765625,40.505859375,4.658203125,142.408203125,-49.103515625,-10.953125,93646.515625,4690.525,7193.4,839.5,-722.5,-9.0,631.5,1.5,32.0,-8.0,4.71875,50.1875,5.40625,142.15625,-46.15625,4.0,93648.75,19.37635212503601,11.677897771900833,41.08348646820355,419.5705177378872,156.71824677097348,376.49733323821016,223.09205164699281,77.13607974474135,168.87452096348093,28.482954799102245,140.01502147898935,14.597955284271933,3.260373657240628,29.053198777716197,55.679927121667404,11.430176793569647,4700.0,7200.0,850.0,-1592.0,-373.0,954.0,211.0,32.0,22.0,-48.5625,-400.125,-26.625,141.0,-88.9375,-179.75,93627.75,4716.1,7218.25,864.45,170.0,180.0,1225.0,460.0,144.0,532.0,60.375,264.875,29.6875,147.125,-1.6875,20.25,93659.5,4641.7,7179.1,724.3,-1592.0,-373.0,-143.0,-614.0,-207.0,-301.0,-48.5625,-400.125,-26.625,136.9375,-88.9375,-179.75,93627.75,LivingRoom ,EATING,4,0,3
4672.542424242424,7214.616666666667,774.0439393939396,-842.5757575757576,215.87878787878788,132.42424242424244,3.0606060606060606,19.696969696969695,-0.9393939393939394,-7.982954545454546,38.58143939393939,15.696969696969697,129.5568181818182,-64.93939393939394,-78.75757575757575,93648.52272727272,4665.9,7212.2,772.9,-882.0,131.0,-31.0,-11.0,25.0,8.0,-2.125,22.625,10.5,143.5625,-64.6875,-105.25,93648.75,23.115150338888068,19.492869957157794,45.37820883553264,214.70314248734087,206.79333850123135,332.79254332682905,101.15456594796505,36.31329375077814,69.34692647926953,23.014560357712828,46.96168673200487,22.901587185355254,21.862029433835943,18.267145232184262,68.55687319802001,11.77198137335196,4650.0,7200.0,800.0,-1011.0,-76.0,-149.0,-11.0,-1.0,-3.0,3.0,12.0625,17.0625,143.5625,-88.9375,-179.75,93644.25,4716.6,7246.05,856.9,-156.0,582.0,840.0,326.0,80.0,161.0,37.875,209.0,55.625,147.125,-29.6875,7.6875,93660.75,4640.85,7179.1,713.75,-1119.0,-76.0,-198.0,-175.0,-55.0,-196.0,-48.5625,-23.0,-26.625,86.9375,-88.9375,-179.75,93627.75,LivingRoom ,EATING,0,0,2
4675.965625,7228.496875000001,744.1984375,-868.9375,399.375,-179.78125,-11.875,5.40625,6.40625,5.62109375,3.58984375,13.767578125,115.173828125,-62.759765625,-121.1953125,93657.125,4671.05,7232.525,745.125,-872.5,409.0,-164.5,-11.5,5.0,6.0,7.0,10.5625,8.4375,119.15625,-62.15625,-117.875,93659.5,41.80936080843234,18.60823151838814,72.88357871199065,94.36714077508398,136.62681690200571,106.61650733867047,48.213737836108834,37.08913359253841,42.70669613961363,29.139844347625306,23.740973122715676,25.209506387315216,19.07866339049707,10.724499825906895,19.553836134131938,10.541584321154007,4650.0,7250.0,800.0,-1023.0,53.0,-175.0,-129.0,22.0,-31.0,-41.25,12.0625,-33.0,86.9375,-85.125,-177.6875,93660.75,4754.2,7255.85,844.5,-699.0,582.0,25.0,72.0,77.0,119.0,56.1875,28.125,55.625,144.625,-49.5625,-103.5625,93675.75,4592.95,7195.55,552.75,-1023.0,53.0,-425.0,-129.0,-102.0,-98.0,-41.25,-76.375,-33.0,86.9375,-85.125,-177.6875,93644.25,LivingRoom ,EATING,0,0,0
4607.015,7207.26,585.0816666666667,-856.0333333333333,404.8,-298.1666666666667,-13.033333333333333,8.466666666666667,2.3666666666666667,12.979166666666666,-3.839583333333333,-3.8291666666666666,112.19791666666667,-59.20625,-127.26041666666667,93659.09166666666,4584.225,7205.15,537.2,-868.0,380.5,-310.5,-11.5,14.0,6.0,7.0,0.09375,-0.0625,117.28125,-60.09375,-130.125,93658.0,86.99665981499238,29.72495874536738,168.91527792895494,61.50272398415589,56.01686938032518,62.852911672786696,46.66127637178047,28.577460775370092,34.621583195869384,20.210851987848326,20.615271238224704,9.921512206010886,18.75813101954095,4.133909852440357,6.348747571417115,8.6548977895251,4500.0,7200.0,400.0,-871.0,374.0,-325.0,-14.0,14.0,-6.0,-10.3125,-0.0625,1.25,131.9375,-60.125,-134.5625,93649.0,4754.2,7255.85,844.5,-699.0,558.0,-175.0,72.0,43.0,66.0,56.1875,25.625,6.6875,132.1875,-49.5625,-111.0625,93675.75,4500.5,7157.45,393.2,-1023.0,349.0,-425.0,-129.0,-102.0,-98.0,-10.3125,-76.375,-33.0,74.6875,-64.1875,-134.5625,93649.0,LivingRoom ,EATING,0,0,0
4501.025806451612,7223.679032258063,478.69677419354844,-859.741935483871,384.16129032258067,-319.5806451612903,-10.838709677419354,13.161290322580646,2.096774193548387,-1.1068548387096775,0.7379032258064516,0.48185483870967744,78.6774193548387,-59.86693548387097,-130.9616935483871,93663.30645161291,4496.5,7208.6,488.15,-857.0,388.0,-313.0,-9.0,11.0,4.0,-0.375,-0.0625,0.75,71.4375,-59.9375,-130.3125,93657.25,36.488735410095565,50.81034962517242,53.84605979933889,11.369455401602675,10.443807652363667,18.040277517356152,8.59106812991861,8.046103712122816,14.007985433815188,3.8606992009081043,4.691454425192246,2.2441587109410226,34.001379019116456,0.35712317534093385,1.8224352282839362,23.90150881546841,4500.0,7200.0,500.0,-871.0,391.0,-308.0,-7.0,14.0,1.0,-0.875,-0.6875,-0.125,131.9375,-59.375,-129.625,93640.75,4575.5,7328.15,542.6,-839.0,399.0,-297.0,4.0,41.0,36.0,11.5,22.1875,6.6875,132.1875,-59.375,-128.8125,93709.5,4446.15,7157.45,393.2,-883.0,354.0,-373.0,-34.0,3.0,-33.0,-10.3125,-4.5,-5.125,34.0,-61.0,-134.5625,93640.75,LivingRoom ,EATING,0,0,0
4509.95625,7283.996875,528.0921875,-849.96875,397.5,-204.34375,-8.375,7.6875,-10.75,-5.20703125,-32.259765625,4.583984375,38.23046875,-59.5703125,-115.8828125,93667.8046875,4493.35,7300.85,536.4000000000001,-855.5,391.0,-304.0,-6.0,9.0,1.0,-0.5,-2.84375,0.75,33.4375,-59.8125,-128.78125,93659.0,55.37051991634589,40.49804443207813,23.202742848759172,84.51168438971676,22.861433929006346,233.78341360286117,44.165195755583746,10.81944933307457,31.59318015423684,9.175875044795543,55.45550042659668,11.585734168951873,14.964738775803077,4.504219292113963,27.418426254734065,26.852098972967315,4500.0,7300.0,550.0,-852.0,391.0,-324.0,-16.0,7.0,3.0,-0.875,-3.75,0.75,24.75,-59.375,-129.625,93709.5,4650.95,7328.15,561.05,-501.0,491.0,576.0,132.0,27.0,12.0,1.1875,1.5625,36.9375,71.4375,-40.25,-38.25,93709.5,4446.15,7208.6,461.85,-1089.0,375.0,-324.0,-189.0,-44.0,-140.0,-26.875,-160.75,-8.0,21.875,-66.5625,-130.3125,93636.25,LivingRoom ,EATING,0,0,0
4662.9375,7277.687500000001,602.4546875,-656.21875,425.6875,312.4375,-13.71875,5.84375,-16.1875,-11.58984375,-38.458984375,7.57421875,26.1015625,-43.4921875,-66.939453125,93652.6171875,4660.125,7267.975,566.775,-712.0,405.0,592.0,-9.5,7.5,-8.5,-6.5,-14.5625,0.90625,25.15625,-38.53125,-36.96875,93647.0,128.99585452203863,33.12006262655762,82.46813593783045,273.2286923929736,52.115527684236795,475.3215507558049,103.9988319956124,34.10052442601187,91.79867083864524,16.571995433142284,69.11432355239099,14.007256521426902,2.5309450732304875,18.231304982112675,43.109033055048684,20.71153492456442,4500.0,7250.0,550.0,-874.0,388.0,-311.0,-16.0,-8.0,-10.0,-26.875,-160.75,-1.6875,24.5625,-60.625,-35.25,93631.5,4834.7,7327.85,772.3,-51.0,576.0,1165.0,186.0,76.0,331.0,16.4375,87.75,36.9375,32.875,-11.3125,-21.9375,93709.5,4473.8,7236.35,512.45,-1089.0,336.0,-311.0,-384.0,-120.0,-217.0,-52.6875,-160.75,-14.25,21.875,-66.5625,-128.75,93631.5,LivingRoom ,EATING,1,0,2
4772.975,7241.5984375,733.1203125000001,-434.3125,424.0625,761.96875,-30.4375,-8.34375,-2.875,-5.310546875,-5.22265625,9.181640625,23.3671875,-24.689453125,-29.83203125,93641.671875,4776.575000000001,7243.200000000001,772.925,-456.5,423.5,686.0,-29.0,-7.5,-1.5,-5.78125,0.6875,7.59375,24.0625,-23.75,-30.3125,93639.75,44.76207532160203,12.668270526200502,83.34345172273875,186.67211853597652,88.7471716950516,162.95328528594897,104.70509661933615,76.31539369299047,131.08548060638313,32.663752647080635,48.40772091233393,19.27761921672566,3.4056904319900227,7.620809338484877,5.098412483688491,9.786107149687322,4800.0,7250.0,800.0,-964.0,441.0,559.0,-97.0,-26.0,-244.0,-52.6875,-157.0,-28.4375,24.5625,-24.9375,-35.25,93631.5,4834.7,7266.15,813.45,-51.0,657.0,1165.0,186.0,187.0,331.0,76.1875,87.75,54.375,29.5625,-11.3125,-21.9375,93660.75,4669.3,7211.05,572.5,-964.0,173.0,559.0,-384.0,-291.0,-244.0,-52.6875,-157.0,-28.4375,16.6875,-36.8125,-37.5625,93631.5,LivingRoom ,EATING,1,0,0
4716.075000000001,7228.409375,766.465625,-392.03125,402.0,804.96875,-32.53125,-15.625,0.375,1.392578125,0.46875,6.052734375,20.640625,-21.826171875,-27.658203125,93653.0625,4716.799999999999,7224.0,779.8,-400.5,394.0,782.0,-41.0,-18.5,-6.0,0.96875,3.21875,4.84375,20.625,-21.90625,-26.71875,93654.5,60.54912162065,12.603989623745548,40.658099295299714,89.68744450374814,99.71540146999651,175.2744363111562,70.22313945215016,81.10516868299317,141.57541020316188,35.707432341024756,25.38223915489193,18.37109151277397,1.4482852764339917,2.2511049244307495,4.017005948222437,12.435640767178931,4700.0,7200.0,800.0,-528.0,335.0,968.0,-97.0,-86.0,163.0,-48.75,-11.75,-28.4375,20.25,-24.9375,-28.5625,93635.25,4817.25,7255.05,813.45,-200.0,657.0,1123.0,111.0,187.0,279.0,76.1875,46.6875,54.375,23.5625,-17.5625,-22.125,93670.25,4616.8,7208.85,695.05,-528.0,173.0,528.0,-152.0,-291.0,-244.0,-48.75,-58.5,-28.4375,16.6875,-25.25,-37.5625,93635.25,LivingRoom ,EATING,0,0,0
4640.9859375,7231.4375,728.6609375,-424.9375,433.34375,754.96875,-12.15625,-6.3125,-9.53125,0.6015625,-0.337890625,-5.171875,21.109375,-24.884765625,-29.98828125,93657.390625,4626.25,7231.049999999999,717.55,-411.0,439.5,762.5,-9.5,-4.0,-16.5,2.25,3.09375,-2.5625,20.875,-23.84375,-30.25,93654.5,31.45933687336866,12.556979809471864,25.453780802805273,120.7858508857455,100.31325431833763,182.99999724572535,106.37399311528323,65.45692378173406,149.26118791481574,31.848687550502234,33.66182051114806,12.537072042675108,1.660818031049177,4.209577375125363,4.0342359690318865,8.787577719566375,4600.0,7250.0,700.0,-404.0,522.0,789.0,-307.0,21.0,163.0,-54.5,-11.75,-3.0,20.5625,-21.5625,-28.5625,93646.0,4710.95,7251.55,784.9,-200.0,617.0,1123.0,298.0,108.0,351.0,47.3125,64.375,9.5625,27.9375,-18.5,-22.6875,93670.25,4605.0,7208.85,695.05,-823.0,259.0,439.0,-307.0,-162.0,-239.0,-54.5,-77.9375,-42.25,19.0625,-33.75,-36.875,93643.25,LivingRoom ,EATING,0,0,0
4651.872580645162,7198.370967741936,717.3919354838711,-545.1612903225806,442.2903225806452,664.1290322580645,-25.806451612903224,-11.774193548387096,-22.741935483870968,5.810483870967742,-1.8669354838709677,-6.973790322580645,22.173387096774192,-31.85282258064516,-33.350806451612904,93657.07258064517,4644.65,7217.3,712.1,-548.0,413.0,667.0,-28.0,-14.0,-31.0,6.6875,-12.9375,-2.4375,20.9375,-31.25,-33.3125,93646.0,37.99747324649731,48.69223205364072,25.496977261282677,148.4210445038469,90.72309281485322,149.4119008949162,111.3437378436221,60.94735962419775,126.40410535050816,31.55782343188555,55.2313145767782,21.22132731152562,5.426346551332792,5.784757908429685,3.6887595807566065,20.476530625367495,4600.0,7250.0,700.0,-519.0,507.0,515.0,-124.0,21.0,-64.0,8.4375,-107.25,-59.875,18.1875,-42.5,-37.875,93643.25,4704.45,7251.55,769.95,-203.0,635.0,1109.0,298.0,112.0,351.0,60.0625,133.9375,35.0625,41.9375,-22.0,-27.0,93693.75,4605.0,7129.9,679.6,-823.0,273.0,439.0,-307.0,-162.0,-239.0,-54.5,-107.25,-59.875,16.1875,-44.125,-41.125,93634.5,LivingRoom ,EATING,0,0,0
4694.763333333333,7176.211666666667,723.3449999999998,-565.1666666666666,393.1333333333333,714.3666666666667,-42.86666666666667,-14.333333333333334,-5.2,3.1020833333333333,-3.0229166666666667,-2.6375,41.604166666666664,-32.025,-30.039583333333333,93673.29166666667,4695.025,7171.325000000001,700.825,-585.0,386.5,680.5,-60.5,-24.5,-8.5,12.96875,-26.375,-0.875,44.84375,-30.9375,-30.125,93683.0,14.393688351767802,37.96006904569628,41.15671971362887,171.3470129607596,142.54889864796266,259.49984829353525,130.45747975102273,108.88821643392328,233.25646681355875,45.3878208213969,60.64437231218877,22.10657229859716,20.604112551211436,5.687620783105516,5.629296331788899,28.3972044621362,4700.0,7150.0,700.0,-567.0,-1.0,296.0,-124.0,-32.0,-490.0,-94.375,-107.25,-1.8125,18.1875,-29.6875,-37.875,93634.5,4735.9,7240.8,812.05,-182.0,726.0,1278.0,222.0,277.0,491.0,85.0,133.9375,35.0625,71.3125,-22.4375,-20.6875,93707.0,4656.7,7129.9,679.6,-890.0,-1.0,296.0,-358.0,-327.0,-490.0,-94.375,-107.25,-59.875,16.1875,-44.125,-41.125,93634.5,LivingRoom ,EATING,0,0,1
4747.687096774193,7209.5741935483875,766.2629032258062,-593.6451612903226,323.16129032258067,691.3548387096774,-45.903225806451616,-16.129032258064516,-6.161290322580645,-6.419354838709677,22.219758064516128,-8.699596774193548,72.75604838709677,-35.225806451612904,-24.824596774193548,93663.90322580645,4745.4,7216.55,787.4,-544.0,331.0,577.0,-27.0,-10.0,-91.0,2.8125,4.5,-5.4375,74.0,-31.1875,-24.4375,93678.0,49.033986457935356,28.945759248888688,45.047626588870614,259.23162723545096,167.5500117923389,285.4350537205848,188.3044263665815,122.08023097823384,271.9556454980841,46.49257947497169,65.04463986164565,20.718446260687344,14.211546754520212,12.6225005510513,3.6099695345421656,30.512680247955576,4700.0,7200.0,800.0,-567.0,-1.0,382.0,-71.0,37.0,-490.0,-94.375,-69.1875,-1.8125,69.5,-32.125,-27.0,93631.0,4812.6,7248.7,813.35,-182.0,726.0,1278.0,222.0,277.0,522.0,85.0,144.0625,27.75,91.3125,-22.4375,-18.75,93707.0,4689.2,7147.2,686.25,-1085.0,-1.0,296.0,-527.0,-327.0,-490.0,-94.375,-69.1875,-57.8125,47.75,-71.0625,-33.4375,93631.0,LivingRoom ,EATING,0,0,1
4771.759375000001,7256.428125,757.68125,-814.5,221.9375,384.1875,-34.90625,-5.65625,-18.375,-2.076171875,27.6015625,-4.60546875,90.564453125,-58.578125,-31.85546875,93652.78125,4775.275,7247.924999999999,755.6500000000001,-939.0,176.0,397.0,-12.0,23.5,-24.5,3.40625,17.125,1.03125,91.46875,-69.5625,-27.0,93645.0,28.94787149537776,46.96348605222381,41.67304719963763,256.4490768793252,124.89245373520372,261.0527616303622,169.06905620523537,76.23630892420682,171.45971971244722,27.87022025406022,67.33890714006687,20.296612505752513,8.094709112667335,19.855418686335412,12.875190234070644,21.401758858983168,4800.0,7250.0,800.0,-1190.0,176.0,-150.0,-45.0,37.0,-32.0,24.25,3.1875,-57.8125,92.1875,-75.5625,-27.0,93645.0,4812.6,7344.4,813.35,-247.0,475.0,1158.0,192.0,69.0,522.0,50.5,144.0625,24.75,101.4375,-28.25,-18.75,93684.75,4724.65,7183.45,686.35,-1190.0,26.0,-150.0,-527.0,-237.0,-305.0,-61.625,-202.0625,-57.8125,74.0,-80.25,-65.3125,93631.0,LivingRoom ,EATING,1,0,2
4743.3125,7319.659375,701.9906250000001,-941.125,186.5,206.84375,-13.6875,8.75,-5.71875,1.2421875,7.630859375,4.36328125,101.3671875,-72.669921875,-43.2109375,93656.8828125,4743.450000000001,7323.375,690.65,-957.5,181.5,179.0,-19.5,18.5,-7.5,0.96875,17.125,6.15625,100.875,-74.84375,-38.75,93655.5,20.46213261045257,36.774227119572956,24.179798411270465,102.31032805052699,65.79244000103905,154.82291848660415,99.24178279138734,46.91309742148156,78.5498544689726,13.318861591470268,61.440578179407694,19.350676964042727,6.4841181206405665,4.631785409797098,18.784261372287688,20.664171929019968,4750.0,7350.0,700.0,-868.0,176.0,-150.0,-46.0,43.0,-47.0,-5.625,-202.0625,-29.125,92.1875,-75.5625,-81.125,93645.0,4797.55,7367.2,749.2,-728.0,341.0,508.0,192.0,87.0,141.0,24.8125,106.3125,48.8125,112.0625,-62.875,-18.75,93684.75,4712.15,7246.8,671.15,-1190.0,26.0,-150.0,-324.0,-97.0,-305.0,-28.5625,-202.0625,-29.125,91.625,-80.25,-81.125,93625.75,LivingRoom ,EATING,0,0,0
4730.38125,7332.764062499999,713.4125,-870.125,373.78125,68.0625,-10.5625,-2.6875,-4.34375,-6.62890625,13.576171875,11.783203125,87.041015625,-62.78125,-72.16796875,93656.1640625,4730.799999999999,7343.15,706.025,-871.0,346.0,18.0,-15.5,-3.5,-8.0,-5.84375,26.375,11.84375,97.15625,-64.6875,-83.875,93670.75,17.163275450611163,32.69716677667607,34.4609339360084,103.32371616710583,180.67038859347187,207.35242517464428,60.03597711695127,39.439980942873106,44.91828378001474,15.684924906726112,45.4736545669151,24.915289872874144,22.183229424167074,9.568078965008867,30.78188681386462,19.848377825871523,4750.0,7350.0,700.0,-787.0,190.0,-229.0,-46.0,17.0,-47.0,-20.4375,-129.5625,-29.125,55.6875,-68.6875,-106.6875,93672.75,4752.05,7367.2,773.2,-713.0,623.0,508.0,153.0,87.0,108.0,19.625,106.3125,48.8125,112.0625,-49.0,-18.75,93672.75,4687.4,7259.35,671.15,-1063.0,97.0,-229.0,-113.0,-78.0,-82.0,-31.625,-129.5625,-29.125,54.3125,-76.25,-106.6875,93625.75,LivingRoom ,EATING,0,0,0
4704.2203125,7259.459375,714.8859375,-851.0,468.65625,-64.4375,-13.125,-7.1875,-5.4375,0.529296875,-0.740234375,2.75390625,76.4765625,-58.146484375,-89.171875,93657.140625,4702.2,7257.175,733.5250000000001,-800.0,530.5,-68.5,-13.0,-7.5,-8.5,0.0,16.28125,4.375,76.46875,-58.0,-98.09375,93665.0,28.69473892257396,74.29188667279371,51.09105286607146,117.99152511939153,146.07192425805724,140.71841879120436,78.08834946764239,70.07665733484872,54.643677142126,22.013982362338368,51.2906263773135,30.014638303247942,23.284296320505995,13.912199564320874,22.300148496901787,14.069662154620532,4700.0,7250.0,750.0,-998.0,600.0,-121.0,13.0,-14.0,-32.0,-31.625,-179.3125,-61.5625,55.6875,-72.9375,-115.125,93635.75,4749.85,7362.3,773.2,-681.0,623.0,221.0,189.0,130.0,108.0,46.5,45.0625,47.375,103.25,0.0,0.0,93672.75,4650.9,7143.2,614.4,-1131.0,47.0,-371.0,-251.0,-279.0,-136.0,-31.625,-179.3125,-61.5625,0.0,-72.9375,-115.125,93635.75,LivingRoom ,EATING,0,0,0
4714.5234375,7195.276562499999,659.396875,-893.125,371.1875,52.90625,-13.96875,1.9375,-12.75,10.396484375,-23.35546875,-12.228515625,94.88671875,-62.62109375,-74.46484375,93654.7109375,4709.799999999999,7190.35,640.975,-890.0,355.0,43.5,-23.0,17.5,-18.0,10.15625,-1.125,-11.4375,101.1875,-66.46875,-78.96875,93654.0,36.28979014058335,42.62562833587593,53.89230889154119,117.35024774222374,129.55468082080495,228.16609108491065,89.06919541895866,76.10601158909853,62.283949156910765,17.32542249007006,65.42820422909492,22.298241973406483,21.87923598099109,13.138289522906001,29.362080796232338,7.539174404777035,4750.0,7150.0,650.0,-998.0,47.0,-371.0,2.0,32.0,-49.0,-20.6875,-179.3125,-61.5625,0.0,-66.5625,-115.125,93660.5,4765.45,7273.1,763.1,-681.0,611.0,517.0,189.0,130.0,100.0,46.5,57.6875,30.25,116.0,0.0,0.0,93665.0,4650.9,7141.85,593.55,-1133.0,47.0,-371.0,-251.0,-279.0,-136.0,-20.6875,-179.3125,-61.5625,0.0,-72.9375,-115.125,93635.75,LivingRoom ,EATING,0,0,0
4719.434848484849,7261.416666666667,697.4227272727273,-782.2424242424242,233.12121212121212,376.6969696969697,-12.181818181818182,5.333333333333333,-29.21212121212121,-2.7367424242424243,-34.15530303030303,-10.778409090909092,111.94886363636364,-53.43181818181818,-40.265151515151516,93662.16666666667,4732.65,7283.8,726.85,-851.0,266.0,322.0,-30.0,8.0,-21.0,4.875,-31.1875,-12.9375,115.875,-61.5625,-32.5,93664.0,33.867585638890375,76.1110297799647,69.92280686910777,284.5745761552486,170.28372602361287,382.34935635231597,204.12640914171521,101.57191623016011,165.94874162971183,35.84999454369755,67.2854938012435,35.948660260687774,23.562238137561053,17.652608609821215,35.44839046140813,8.107352629969085,4750.0,7350.0,750.0,-834.0,-138.0,337.0,38.0,32.0,-49.0,-114.25,-166.5,-100.5625,0.0,-66.5625,-101.6875,93660.5,4765.45,7360.5,787.1,449.0,456.0,1361.0,968.0,295.0,543.0,62.25,72.5,69.125,137.875,0.0,4.5625,93674.5,4661.6,7141.85,593.55,-1133.0,-138.0,-124.0,-243.0,-220.0,-456.0,-114.25,-166.5,-100.5625,0.0,-69.1875,-101.6875,93647.25,LivingRoom ,EATING,1,0,4
4712.431818181818,7316.775757575758,761.730303030303,-647.030303030303,86.0909090909091,586.8484848484849,7.515151515151516,0.36363636363636365,-46.24242424242424,-9.551136363636363,-14.768939393939394,1.3882575757575757,125.63636363636364,-43.547348484848484,-12.736742424242424,93661.59090909091,4711.15,7316.9,762.5,-715.0,116.0,742.0,-12.0,-10.0,-18.0,-7.25,-27.8125,0.5,129.9375,-38.4375,-7.6875,93664.0,30.810225114252376,22.24011410018834,20.352594810743494,359.95490037368614,187.67914169473582,400.1740341098577,246.97344508217392,123.23752933406136,205.41163402772344,38.70129390647697,149.7000227056052,47.2172861225965,23.63693509778206,20.25454490798178,18.293510562629006,8.489611800472815,4700.0,7300.0,750.0,-766.0,-280.0,765.0,38.0,-220.0,-457.0,-114.25,-333.75,-100.5625,131.0,-79.375,5.9375,93650.0,4764.6,7360.5,794.45,449.0,456.0,1361.0,968.0,295.0,543.0,62.25,506.625,112.375,140.0,0.0,7.5625,93674.5,4661.6,7272.45,726.85,-1279.0,-280.0,-189.0,-449.0,-220.0,-457.0,-114.25,-333.75,-100.5625,0.0,-79.375,-66.1875,93650.0,LivingRoom ,EATING,2,0,3
4719.195161290322,7313.532258064515,775.8499999999999,-596.2258064516129,157.83870967741936,647.741935483871,13.903225806451612,-2.064516129032258,-32.806451612903224,2.7943548387096775,9.669354838709678,6.016129032258065,136.33064516129033,-39.65524193548387,-16.266129032258064,93662.08870967742,4711.55,7316.9,776.8,-565.0,246.0,742.0,-2.0,29.0,-18.0,6.0625,-1.25,5.8125,134.375,-35.9375,-17.625,93659.0,24.255694708798856,13.94837833099313,21.126373722592962,319.05659996071955,201.27081205417304,334.3431338950984,211.31546004945776,117.88495394065944,145.31928510578322,27.59080270947596,151.02042079904257,43.59972992958553,7.735490341270712,16.46939926746519,17.599582497873705,11.435425292174457,4700.0,7300.0,800.0,-500.0,255.0,-189.0,-67.0,33.0,-457.0,-56.0,-333.75,-78.1875,131.0,-32.125,5.9375,93650.0,4764.6,7332.8,815.4,34.0,492.0,1078.0,456.0,230.0,301.0,55.8125,506.625,112.375,149.8125,-18.8125,7.5625,93684.5,4667.5,7272.45,727.05,-1279.0,-280.0,-189.0,-470.0,-251.0,-457.0,-56.0,-333.75,-78.1875,125.1875,-79.375,-66.1875,93650.0,LivingRoom ,EATING,3,0,1
4685.920967741936,7303.2016129032245,805.4822580645163,-598.3225806451613,259.6774193548387,716.6129032258065,-13.32258064516129,-0.06451612903225806,-5.741935483870968,4.61491935483871,-6.292338709677419,-3.536290322580645,136.6048387096774,-36.703629032258064,-19.66532258064516,93662.59677419355,4675.85,7311.7,812.45,-657.0,255.0,716.0,-30.0,0.0,1.0,-0.9375,-1.25,-4.25,135.75,-37.875,-20.4375,93659.0,23.60286626024312,20.352679937668263,20.886812220422318,208.2127737190611,82.74192290762653,113.73175382432555,151.3933919951097,87.37655501100623,62.110636631705034,16.909941423660015,55.042212463615456,29.304364428009187,9.662526777355822,6.776663536195057,4.965782614634521,16.765002910248636,4650.0,7300.0,800.0,-1106.0,235.0,685.0,-67.0,-3.0,-5.0,-28.8125,-108.5625,-8.0625,120.0625,-32.125,-26.875,93638.5,4740.45,7332.8,832.7,34.0,492.0,875.0,456.0,230.0,132.0,43.625,111.6875,63.1875,149.8125,-25.4375,-9.5,93684.5,4658.75,7272.5,770.9,-1106.0,77.0,523.0,-470.0,-251.0,-166.0,-28.8125,-108.5625,-78.1875,120.0625,-47.75,-26.875,93638.5,LivingRoom ,EATING,2,0,0
4708.1890625,7275.037499999999,826.10625,-596.125,209.3125,748.90625,-19.5,-0.1875,-1.09375,-1.78125,1.134765625,1.283203125,115.17578125,-36.34765625,-15.873046875,93654.609375,4695.175,7277.425,824.9749999999999,-585.0,200.0,804.0,-22.0,-3.0,3.0,-1.3125,8.5625,0.4375,119.90625,-34.3125,-14.1875,93653.0,45.3386393181552,17.045659744610386,12.619236148346772,105.70157321745576,41.36262727975426,100.61628142954638,36.86942959566472,13.964095665023764,28.815720815711558,4.9446788359126606,32.94340481354994,6.811917043254672,22.628093251722945,6.392940787328024,4.31130138716347,16.20905977999998,4650.0,7300.0,800.0,-795.0,164.0,523.0,-65.0,-15.0,5.0,-2.75,-79.125,-8.5625,73.375,-34.3125,-11.875,93638.5,4788.85,7318.25,850.8,-381.0,296.0,871.0,92.0,36.0,44.0,7.875,52.375,19.6875,147.6875,-26.4375,-11.625,93684.25,4658.75,7240.95,805.45,-795.0,161.0,523.0,-78.0,-25.0,-76.0,-10.75,-79.125,-8.5625,73.375,-47.75,-24.4375,93633.0,LivingRoom ,EATING,0,0,0
4764.419354838708,7267.770967741936,831.590322580645,-628.0967741935484,202.58064516129033,736.3870967741935,-15.935483870967742,-0.5483870967741935,0.967741935483871,-0.04032258064516129,8.294354838709678,2.493951612903226,79.5524193548387,-38.59475806451613,-15.671370967741936,93655.09677419355,4776.6,7270.15,832.1,-666.0,215.0,709.0,-18.0,-2.0,4.0,0.3125,3.5,0.25,73.375,-41.3125,-17.4375,93653.5,25.115903585243057,10.488658749601477,12.434363804626535,68.64952286248835,27.573869506652354,65.82384442300264,22.73900537823495,11.084038703401148,17.956398805565556,2.8035760454236156,14.782892293793271,5.457085293992937,21.459470621808908,4.956289958007852,2.750519256939624,15.597365885964374,4800.0,7250.0,850.0,-692.0,164.0,664.0,-26.0,-5.0,-17.0,-1.0625,-0.375,-0.1875,51.75,-43.5625,-18.1875,93633.0,4788.85,7279.8,850.8,-483.0,246.0,848.0,58.0,36.0,44.0,7.875,52.375,19.6875,119.75,-30.0,-11.625,93684.25,4700.8,7240.95,805.45,-703.0,161.0,641.0,-74.0,-25.0,-33.0,-5.9375,-13.75,-3.3125,51.75,-43.6875,-18.5,93633.0,LivingRoom ,EATING,0,0,0
4788.9725806451615,7270.287096774194,841.2983870967743,-686.1290322580645,225.5483870967742,672.258064516129,-10.419354838709678,-0.25806451612903225,-0.8387096774193549,0.43951612903225806,1.909274193548387,0.07661290322580645,52.37096774193548,-43.431451612903224,-18.481854838709676,93658.20967741935,4785.1,7269.95,841.4,-688.0,226.0,676.0,-11.0,-1.0,-1.0,0.6875,0.6875,0.375,51.0,-43.3125,-18.3125,93654.25,12.470450664869636,8.51629778465919,10.330896087876155,13.766485718303638,8.48857549760233,19.636645575616157,10.06569816604355,4.704379108415788,11.53284230417217,1.2473392380307704,5.992874212816848,1.8620881589838751,10.252742715923615,0.8412160776205551,0.6907486782898248,12.519500917600768,4800.0,7250.0,850.0,-692.0,218.0,664.0,-20.0,-1.0,-17.0,1.625,-3.6875,0.375,38.0625,-42.9375,-18.125,93653.5,4811.75,7288.45,860.45,-665.0,247.0,709.0,18.0,11.0,24.0,2.25,14.75,4.625,71.6875,-42.1875,-17.4375,93674.5,4771.65,7253.15,818.8,-724.0,213.0,619.0,-27.0,-10.0,-29.0,-2.125,-13.75,-3.3125,38.0625,-46.25,-20.4375,93633.0,LivingRoom ,EATING,0,0,0
4774.6875,7270.623437499999,851.021875,-660.875,225.6875,688.875,-6.75,-0.71875,-2.34375,0.85546875,-5.234375,-0.859375,39.90234375,-41.876953125,-18.23046875,93656.3828125,4777.3,7269.1,852.3,-675.5,227.0,672.0,-6.5,-0.5,-2.5,0.6875,0.3125,0.28125,37.875,-42.96875,-18.40625,93663.5,27.7232346946652,9.833632088932601,5.851246593124276,59.02364206469002,11.535184604980007,56.11552024977783,17.929971304152776,7.5913124157518626,20.693788026923098,2.6008604684625607,20.73949160651664,3.2906116452720457,5.18845787648784,3.8077040291412234,1.5092488301304063,12.221409093135463,4800.0,7250.0,850.0,-727.0,222.0,634.0,-11.0,0.0,-8.0,1.625,-80.625,0.375,36.75,-42.9375,-20.4375,93663.5,4811.75,7288.45,860.45,-507.0,247.0,805.0,36.0,14.0,52.0,6.875,15.1875,4.25,51.0,-33.8125,-15.9375,93675.25,4722.0,7253.15,839.55,-732.0,194.0,616.0,-42.0,-22.0,-58.0,-3.875,-80.625,-12.375,33.875,-46.4375,-20.4375,93633.25,LivingRoom ,EATING,0,0,0
4732.560937499999,7246.21875,866.2484375,-599.4375,211.15625,746.75,-13.875,-11.90625,-1.6875,1.185546875,-5.998046875,-0.728515625,33.833984375,-36.796875,-16.716796875,93657.703125,4724.9,7256.425,859.55,-583.5,215.0,769.5,-9.5,-2.0,-8.0,0.03125,-2.15625,-1.0,33.71875,-34.78125,-16.1875,93659.0,26.00411485544787,29.13648292256246,14.917561010838766,74.49396489952467,25.388731784256244,72.04926629878717,42.74511856680623,31.227943829308575,41.89883168746109,11.653304991786786,24.045972457464703,6.312442298023565,2.2668282747414588,4.712714442797785,2.054142670467434,13.697397548321879,4700.0,7250.0,850.0,-727.0,205.0,616.0,-40.0,-2.0,-30.0,-3.875,3.4375,-12.375,32.9375,-34.5,-20.375,93663.5,4780.15,7285.2,887.85,-474.0,267.0,872.0,74.0,14.0,105.0,31.4375,61.875,21.25,37.6875,-31.625,-13.75,93675.25,4701.95,7197.2,848.25,-732.0,150.0,616.0,-166.0,-128.0,-141.0,-38.5625,-80.625,-12.375,28.875,-46.4375,-20.4375,93633.25,LivingRoom ,EATING,0,0,0
4732.28125,7238.8125,841.1453125,-597.90625,242.21875,712.59375,-15.03125,-15.71875,-1.46875,-9.80859375,3.43359375,10.40625,20.80078125,-38.263671875,-20.9921875,93661.0234375,4724.9,7233.85,864.825,-568.5,213.5,757.5,-19.0,-4.5,-11.5,-4.8125,-2.3125,2.53125,28.375,-34.5,-18.15625,93659.0,27.02479372366147,24.30251546783829,52.202925019048074,174.3991268428497,82.11036411538613,196.52954458595096,92.81180555295754,67.42462189064744,112.9544539597923,29.440296925121434,86.67848936456602,19.183437759541263,12.942436504631239,10.349277460060316,8.081049709989573,7.015351649786437,4700.0,7250.0,900.0,-578.0,183.0,203.0,-107.0,-25.0,-30.0,-65.25,3.4375,-10.625,32.9375,-34.875,-13.75,93654.0,4803.55,7272.55,887.85,-330.0,478.0,1126.0,166.0,144.0,336.0,32.3125,201.9375,75.0625,33.5625,-30.0,-13.75,93675.25,4701.95,7197.2,744.5,-1046.0,150.0,203.0,-219.0,-131.0,-243.0,-65.25,-261.9375,-10.625,1.25,-66.125,-47.4375,93654.0,LivingRoom ,EATING,0,0,1
4793.5078125,7238.893749999999,763.303125,-566.5625,303.34375,710.78125,-18.25,-8.75,-12.375,-8.185546875,-3.431640625,7.259765625,20.734375,-35.6328125,-24.45703125,93656.859375,4802.924999999999,7241.75,745.45,-529.5,293.5,684.0,-16.5,0.5,-37.0,-8.21875,-17.34375,3.09375,19.21875,-31.6875,-23.3125,93660.0,46.93176087610023,26.416040917252108,54.10193625045583,194.79715462914982,111.80011234774204,233.0120769921455,99.53148310475564,86.26777516696524,156.91476009440242,37.66062201689378,90.75964047169957,26.661445738267584,16.322087313643237,12.082010900474868,6.442233960530908,6.915369016114198,4750.0,7250.0,750.0,-1046.0,196.0,203.0,-44.0,-20.0,-285.0,-65.4375,-261.9375,-48.625,1.25,-31.875,-47.4375,93643.75,4862.55,7272.55,886.8,-318.0,514.0,1126.0,166.0,144.0,336.0,56.1875,201.9375,75.0625,50.375,-21.625,-15.1875,93663.75,4721.7,7194.2,703.2,-1046.0,21.0,203.0,-219.0,-237.0,-285.0,-65.4375,-261.9375,-48.625,1.25,-66.125,-47.4375,93643.75,LivingRoom ,EATING,0,0,1
4838.0671875,7211.9390625,755.5703125,-500.78125,328.65625,758.21875,-19.71875,-10.6875,-15.5625,2.39453125,-2.625,-5.52734375,51.845703125,-29.30078125,-23.771484375,93657.296875,4840.025,7207.4,751.75,-493.0,348.0,718.5,-5.0,7.0,-48.5,4.71875,-13.28125,-5.8125,50.15625,-28.75,-23.3125,93660.75,15.985182702372446,17.685390062800035,35.55543572474697,140.15929517585892,116.31204119702893,171.3277813705496,89.36017528753709,77.62583436775623,176.77631893294947,33.15118957650995,59.79344275395896,22.867986197230703,24.191878221186126,5.750623158290704,2.8499349779916456,11.706153175890847,4850.0,7200.0,800.0,-960.0,374.0,927.0,-44.0,14.0,-58.0,-65.4375,-130.5,-48.625,9.125,-23.0,-26.4375,93643.75,4862.55,7249.7,810.6,-318.0,514.0,1055.0,93.0,132.0,609.0,56.1875,147.1875,40.1875,86.5,-21.625,-19.5625,93669.75,4802.9,7190.5,703.2,-960.0,21.0,472.0,-286.0,-237.0,-285.0,-65.4375,-130.5,-48.625,9.125,-45.3125,-28.75,93637.25,LivingRoom ,EATING,0,0,0
4846.175,7197.778125,777.7640625,-554.03125,334.5625,701.0,-14.03125,-14.78125,-18.34375,2.203125,15.505859375,-0.486328125,83.51953125,-33.943359375,-25.9296875,93654.625,4846.3,7196.625,785.125,-540.5,340.0,687.0,8.5,1.0,-36.0,3.9375,16.6875,-1.0625,87.28125,-34.8125,-25.5,93659.0,8.649762256661989,9.162387503160051,19.63053593329091,155.3290958712937,89.09724209192503,153.94238553600542,110.80627802611185,56.498206865636526,152.9949628888312,30.400394270045144,65.24232968329518,24.282209312717054,14.71199859284136,6.793363537228192,3.772604920086984,13.027576211079475,4850.0,7200.0,800.0,-960.0,335.0,391.0,41.0,14.0,-33.0,-63.625,-130.5,21.0625,49.9375,-47.125,-28.75,93637.25,4860.5,7212.3,810.6,-328.0,459.0,978.0,160.0,65.0,609.0,50.5625,147.1875,49.1875,101.4375,-23.0,-19.9375,93669.75,4825.45,7178.65,737.75,-960.0,42.0,391.0,-355.0,-192.0,-209.0,-63.625,-130.5,-44.375,49.9375,-47.125,-35.25,93634.75,LivingRoom ,EATING,0,0,0
4826.6078125,7212.0515625,740.8546875000001,-665.875,285.09375,642.9375,-19.1875,-17.125,-17.59375,-3.994140625,7.140625,-2.927734375,103.486328125,-42.0859375,-24.73046875,93650.4140625,4840.225,7209.4,736.025,-667.5,301.0,606.5,-10.5,-5.0,-28.5,-0.8125,6.40625,-1.59375,102.78125,-41.59375,-24.4375,93653.0,30.787489890703377,22.18397592413088,32.019362487294174,144.6548171649747,110.64717519680408,176.07200460735265,117.33834109242632,69.84395048502654,139.1791278787763,38.872933119047936,57.8547676786033,25.955151443118798,9.308916749122139,6.062920878307163,5.078626681174141,11.574375440371606,4850.0,7200.0,750.0,-984.0,11.0,925.0,41.0,-3.0,111.0,-84.9375,-128.5,-60.125,110.9375,-41.0,-21.5,93634.75,4860.5,7250.15,792.35,-384.0,452.0,970.0,193.0,138.0,269.0,70.25,119.25,49.1875,115.8125,-31.625,-14.25,93668.0,4770.5,7178.65,695.95,-984.0,11.0,284.0,-355.0,-193.0,-276.0,-84.9375,-128.5,-60.125,88.0625,-54.125,-35.25,93634.75,LivingRoom ,EATING,0,0,0
4778.066666666667,7218.715151515151,756.7121212121214,-513.2424242424242,48.666666666666664,760.6060606060606,-34.75757575757576,-9.818181818181818,-24.393939393939394,-18.867424242424242,-19.178030303030305,-0.19128787878787878,110.0094696969697,-31.09659090909091,-7.304924242424242,93658.50757575757,4768.9,7223.95,729.7,-534.0,100.0,799.0,-50.0,-3.0,-23.0,-22.5625,-15.125,4.8125,110.8125,-41.0,-8.3125,93664.25,30.447582176860394,20.678995551224805,61.87392300868637,282.81299367946195,232.71020963134958,219.01839811331197,139.79271044635837,88.63635489510447,156.61875274730423,37.156771566381664,74.42225409508102,21.427583686115277,3.9908685202507024,16.536330230952156,16.195278638831564,11.389497088958489,4750.0,7200.0,700.0,-984.0,-333.0,284.0,-304.0,-53.0,-93.0,-84.9375,-218.8125,12.875,104.75,-54.125,-21.5,93653.0,4848.95,7250.15,889.2,218.0,445.0,1109.0,341.0,138.0,269.0,70.25,119.25,38.5625,116.0625,-7.1875,15.9375,93668.0,4745.5,7184.6,695.95,-984.0,-333.0,284.0,-304.0,-193.0,-306.0,-84.9375,-218.8125,-60.125,104.125,-54.125,-33.4375,93634.75,LivingRoom ,EATING,1,0,0
4757.478125,7186.1171875,873.2109375,-270.25,-213.84375,900.4375,-27.0,-6.15625,-18.28125,-15.8203125,-17.94140625,6.595703125,105.34375,-15.1328125,12.09765625,93662.4375,4755.9,7185.45,883.375,-276.0,-264.0,909.5,-42.5,-4.5,-3.0,-10.96875,-13.21875,5.75,104.59375,-14.28125,15.71875,93664.25,7.117945715561279,27.191070075204326,95.1233755186415,197.00122809507494,151.28996073018837,121.85288260849639,132.72260667490164,69.16791600763109,125.63727471728721,24.944352128788594,68.36552120987142,10.818435863376457,4.43100672133502,6.378887769304857,7.9616953671915685,5.14389710427365,4750.0,7200.0,950.0,-839.0,-282.0,625.0,-304.0,-53.0,-125.0,-61.4375,-218.8125,-2.0,103.125,-14.25,4.0625,93653.0,4768.9,7243.7,979.1,218.0,169.0,1133.0,341.0,129.0,225.0,23.6875,100.5625,38.5625,116.0625,-6.5,19.8125,93668.0,4745.5,7140.25,712.05,-839.0,-387.0,625.0,-304.0,-190.0,-306.0,-61.4375,-218.8125,-13.625,98.625,-41.875,-8.3125,93653.0,LivingRoom ,EATING,0,0,0
4760.072580645161,7142.8209677419345,948.3338709677417,-236.03225806451613,-304.35483870967744,909.0967741935484,25.580645161290324,1.096774193548387,9.548387096774194,-1.4375,10.72983870967742,0.967741935483871,102.19556451612904,-15.050403225806452,18.64717741935484,93658.5241935484,4759.5,7135.6,953.55,-237.0,-302.0,913.0,4.0,-5.0,-2.0,2.5625,0.875,3.3125,102.5,-14.875,18.3125,93656.5,6.938741945406668,22.489719037053217,26.161655742379832,188.32250420859916,67.4584061414127,159.42905524374777,165.90012541557414,48.87422963669755,132.71042127119668,19.84568724139664,78.61589836544802,9.772674901539638,1.6626834121480427,6.707552090019322,1.8368017655170228,7.978187669804695,4750.0,7150.0,950.0,41.0,-302.0,969.0,-248.0,-21.0,-228.0,-46.3125,-132.75,-25.875,103.125,-14.25,18.1875,93647.75,4771.05,7185.75,979.1,114.0,-142.0,1313.0,452.0,101.0,279.0,28.1875,219.5,19.75,105.8125,-3.4375,22.4375,93669.25,4745.3,7118.15,906.4,-722.0,-469.0,556.0,-248.0,-83.0,-228.0,-46.3125,-132.75,-25.875,98.625,-31.1875,15.5625,93647.75,LivingRoom ,EATING,0,0,0
4743.503124999999,7132.017187500001,891.0218749999999,-525.46875,-160.3125,661.28125,21.1875,-3.46875,-34.09375,13.091796875,15.2109375,7.9375,104.47265625,-37.072265625,10.810546875,93661.46875,4742.55,7126.95,905.4,-522.0,-216.0,656.5,12.5,9.5,-45.5,14.21875,21.0,5.375,104.25,-34.125,17.40625,93656.5,18.037000222213567,12.32662087342906,54.652512171843924,357.0796409201698,201.4149043881247,330.42448108699955,183.19273078619474,67.70142437868812,162.19648764643057,25.617588347769903,111.18910501525203,17.461969044275214,2.9795987049501016,24.55358026386257,12.916805799821894,12.288000637915811,4750.0,7150.0,900.0,41.0,-65.0,-26.0,-265.0,-21.0,-342.0,-46.3125,40.1875,0.0,102.125,-84.4375,-14.375,93647.75,4771.05,7156.25,973.8,41.0,196.0,1313.0,452.0,101.0,282.0,55.75,219.5,45.0,110.6875,-3.4375,22.4375,93681.75,4714.9,7118.15,796.25,-1185.0,-469.0,-26.0,-265.0,-187.0,-342.0,-46.3125,-167.75,-25.875,99.1875,-84.4375,-14.375,93647.75,LivingRoom ,EATING,4,0,3
4709.5453125,7175.55625,790.684375,-858.90625,41.4375,363.25,-20.03125,-18.59375,-51.40625,13.330078125,14.875,11.228515625,107.869140625,-62.736328125,-10.0546875,93665.828125,4714.475,7155.35,790.625,-893.0,73.0,334.5,10.5,-6.5,-62.5,14.875,8.875,9.0625,108.1875,-65.8125,-12.25,93661.0,21.661458114382015,44.58513919566452,59.83102474617511,186.47707796090842,162.22583571735282,223.92452645565,126.62275298136842,67.27212880915936,125.97461581860514,23.14243694374714,99.185164337197,16.17275849328141,2.23360736447097,14.307245076787074,17.134105111260105,16.061931237576793,4700.0,7150.0,750.0,-1185.0,-65.0,-26.0,-265.0,10.0,-342.0,-33.3125,-167.75,-10.6875,108.75,-84.4375,-38.0,93647.0,4739.8,7292.3,904.4,-472.0,257.0,963.0,173.0,77.0,282.0,55.75,204.5,45.0,110.6875,-37.0625,22.125,93688.0,4653.05,7124.95,716.8,-1185.0,-432.0,-26.0,-265.0,-187.0,-342.0,-33.3125,-167.75,-10.6875,104.1875,-84.4375,-38.0,93647.0,LivingRoom ,EATING,0,0,1
4659.484375,7264.25,717.89375,-916.3125,137.8125,286.0,-21.6875,-14.8125,-14.5625,0.470703125,25.12109375,10.1484375,107.26953125,-68.0546875,-30.626953125,93658.078125,4647.775,7297.15,716.8,-942.5,103.0,243.0,-32.0,-13.0,-17.0,4.0,18.1875,6.0,108.03125,-71.4375,-23.15625,93660.0,35.08032588378992,61.058102946978885,25.10804314647322,116.65538923988757,114.50691977963321,208.17594915467927,88.56979660678769,52.98109066206485,73.04039425926169,18.51212674945951,63.005445988171104,20.37000699508566,3.7073324488220245,9.44691169774546,20.612266868479296,18.102467918990065,4700.0,7300.0,700.0,-1125.0,103.0,240.0,-44.0,-65.0,-53.0,-23.1875,-88.6875,-2.8125,108.75,-77.9375,-31.3125,93632.5,4714.05,7335.85,785.0,-555.0,435.0,963.0,226.0,56.0,246.0,25.0,170.9375,55.0625,110.4375,-42.3125,-8.5,93688.0,4618.4,7150.95,682.95,-1125.0,-65.0,61.0,-234.0,-173.0,-120.0,-46.25,-88.6875,-14.625,92.6875,-77.9375,-80.9375,93632.5,LivingRoom ,EATING,0,0,0
