MEAN_POS_X,MEAN_POS_Y,MEAN_POS_Z,MEAN_ACC_X,MEAN_ACC_Y,MEAN_ACC_Z,MEAN_LINACC_X,MEAN_LINACC_Y,MEAN_LINACC_Z,MEAN_GYRO_X,MEAN_GYRO_Y,MEAN_GYRO_Z,MEAN_Heading,MEAN_Roll,MEAN_Pitch,MEAN_Pressure,MEDIAN_POS_X,MEDIAN_POS_Y,MEDIAN_POS_Z,MEDIAN_ACC_X,MEDIAN_ACC_Y,MEDIAN_ACC_Z,MEDIAN_LINACC_X,MEDIAN_LINACC_Y,MEDIAN_LINACC_Z,MEDIAN_GYRO_X,MEDIAN_GYRO_Y,MEDIAN_GYRO_Z,MEDIAN_Heading,MEDIAN_Roll,MEDIAN_Pitch,MEDIAN_Pressure,STD_POS_X,STD_POS_Y,STD_POS_Z,STD_ACC_X,STD_ACC_Y,STD_ACC_Z,STD_LINACC_X,STD_LINACC_Y,STD_LINACC_Z,STD_GYRO_X,STD_GYRO_Y,STD_GYRO_Z,STD_Heading,STD_Roll,STD_Pitch,STD_Pressure,MODE_POS_X,MODE_POS_Y,MODE_POS_Z,MODE_ACC_X,MODE_ACC_Y,MODE_ACC_Z,MODE_LINACC_X,MODE_LINACC_Y,MODE_LINACC_Z,MODE_GYRO_X,MODE_GYRO_Y,MODE_GYRO_Z,MODE_Heading,MODE_Roll,MODE_Pitch,MODE_Pressure,MAX_POS_X,MAX_POS_Y,MAX_POS_Z,MAX_ACC_X,MAX_ACC_Y,MAX_ACC_Z,MAX_LINACC_X,MAX_LINACC_Y,MAX_LINACC_Z,MAX_GYRO_X,MAX_GYRO_Y,MAX_GYRO_Z,MAX_Heading,MAX_Roll,MAX_Pitch,MAX_Pressure,MIN_POS_X,MIN_POS_Y,MIN_POS_Z,MIN_ACC_X,MIN_ACC_Y,MIN_ACC_Z,MIN_LINACC_X,MIN_LINACC_Y,MIN_LINACC_Z,MIN_GYRO_X,MIN_GYRO_Y,MIN_GYRO_Z,MIN_Heading,MIN_Roll,MIN_Pitch,MIN_Pressure,LOCATION,ACTIVITY,Peaks_Acc_X,Peaks_Acc_Y,Peaks_Acc_Z
4792.575,7219.2125,711.05,-872.125,135.6875,402.9375,11.375,-9.8125,-6.6875,-0.234375,27.08203125,3.49609375,349.58984375,-62.3515625,-21.94921875,93656.34375,4794.35,7219.700000000001,714.475,-862.5,130.0,405.0,39.5,-26.5,-42.0,-4.21875,23.65625,4.0625,350.0,-62.40625,-17.125,93660.75,34.764176964225776,11.885965112966993,26.47863289522328,169.94739382134304,77.40173878322544,176.0229033393098,144.60192483735017,58.00025143623661,128.4423184416517,23.788461182192233,63.71535708536542,15.211982474591919,2.034976549567996,7.799034228405036,11.873776663961008,12.614104209177915,4750.0,7200.0,700.0,-1199.0,-21.0,524.0,-267.0,-41.0,-174.0,-43.125,-131.4375,-28.0,351.0,-76.25,-14.0,93660.75,4837.8,7237.7,757.2,-557.0,246.0,726.0,267.0,99.0,267.0,38.5625,102.875,26.625,352.9375,-49.625,-14.0,93674.75,4747.65,7194.4,671.75,-1199.0,-21.0,68.0,-267.0,-133.0,-174.0,-43.125,-131.4375,-28.0,346.5625,-76.25,-55.3125,93642.0,LivingRoom ,EATING,0,0,0
4787.6875,7250.871875,702.3406249999999,-852.125,414.9375,-105.375,-15.375,-35.4375,22.6875,-4.86328125,36.75,19.75390625,327.66796875,-60.2109375,-100.95703125,93653.421875,4796.575,7254.049999999999,701.775,-817.0,461.5,-131.5,-23.5,-39.5,21.0,-2.4375,38.125,26.09375,323.1875,-56.375,-106.53125,93648.75,35.10266609057883,9.328647075005163,14.099872561480838,99.52612722295589,109.28340450406914,122.25431144408228,40.11296548499001,35.30621994304497,25.950513803519705,21.082158466318347,11.709993951037434,26.21707725841991,11.542871148417033,10.045647767192516,16.560223408787646,10.594699441230034,4800.0,7250.0,700.0,-715.0,197.0,-143.0,-65.0,-79.0,20.0,-36.1875,17.75,-18.5625,314.75,-75.875,-122.6875,93648.0,4828.25,7262.85,729.7,-703.0,527.0,109.0,64.0,21.0,75.0,32.9375,56.125,52.9375,347.375,-50.5625,-61.75,93674.75,4722.75,7225.65,674.1,-994.0,197.0,-320.0,-65.0,-79.0,-22.0,-36.1875,17.75,-18.5625,314.75,-75.875,-122.6875,93648.0,LivingRoom ,EATING,0,0,0
4705.79375,7207.24375,703.853125,-859.5,335.1875,120.0,-15.0625,-4.0625,-11.8125,5.9453125,-47.3671875,-16.375,119.515625,-61.0703125,-66.1953125,93657.453125,4703.15,7202.875,710.35,-842.5,333.5,278.0,27.0,-12.0,-8.0,6.5625,-31.40625,-14.6875,22.8125,-60.59375,-45.1875,93660.5,7.869580145513814,14.709530640597189,23.713656183375292,146.66833332386375,83.61596239155935,373.22218583572976,149.37312062973936,47.8295149463174,91.70403026403292,14.712467696792631,99.52909927032647,16.257754560004077,154.26532963398915,6.142910675119735,38.38903024601125,5.199534233948268,4700.0,7200.0,700.0,-1188.0,270.0,-496.0,82.0,-36.0,-145.0,-14.375,-228.9375,-36.9375,4.5,-70.0,-129.0,93660.5,4724.65,7227.5,728.6,-559.0,441.0,599.0,205.0,92.0,113.0,36.0,91.375,14.1875,356.5625,-50.6875,-31.3125,93661.25,4697.05,7186.15,650.4,-1188.0,160.0,-496.0,-364.0,-82.0,-145.0,-14.375,-228.9375,-36.9375,4.5,-70.0,-129.0,93650.0,LivingRoom ,EATING,0,0,1
4771.640625,7254.55625,707.121875,-600.625,234.25,693.8125,-18.4375,-31.1875,-13.375,-9.26171875,-38.27734375,9.13671875,32.4921875,-39.3515625,-23.65234375,93647.140625,4776.6,7251.65,712.2750000000001,-561.0,241.5,564.5,-19.0,-31.0,-36.0,-3.875,-24.34375,9.65625,32.4375,-30.875,-20.0,93646.75,39.603464573822215,21.662301162772867,37.99435909337946,225.2118632162465,194.76293281833685,311.3712079924325,103.96407632767516,163.92039480593417,174.05894595414125,30.67265186229624,57.98364069192814,20.211308441867185,2.135254058849516,14.599298552641722,8.911134442779531,4.423393069805124,4800.0,7250.0,700.0,-1096.0,61.0,284.0,-187.0,-315.0,-297.0,-63.4375,-151.0,-19.0625,32.4375,-68.5,-42.5625,93643.75,4822.4,7287.5,781.9,-309.0,470.0,1261.0,147.0,169.0,309.0,38.6875,50.3125,51.625,35.6875,-27.3125,-13.1875,93661.25,4716.95,7224.7,648.65,-1096.0,-119.0,284.0,-187.0,-315.0,-297.0,-63.4375,-151.0,-19.0625,27.1875,-68.5,-42.5625,93643.75,LivingRoom ,EATING,0,0,1
4849.23125,7210.21875,824.728125,-548.1875,187.6875,764.75,-24.5625,-38.8125,-44.6875,9.78515625,9.7265625,-2.73828125,30.80859375,-32.8671875,-16.421875,93661.53125,4856.65,7205.55,831.45,-531.5,263.0,753.5,2.0,20.0,-64.0,20.84375,11.78125,1.5625,30.34375,-32.59375,-16.5625,93653.0,18.724599461670767,16.813941388026805,16.99341998882705,117.49338633869284,205.22271438610298,238.82504056317043,84.12765597590366,171.83178547637803,232.69399612652953,41.047235041562686,35.136970639615,11.692996006112306,1.6180087990979324,2.755758648569694,2.4476285291413538,12.625,4850.0,7200.0,850.0,-787.0,-209.0,440.0,-202.0,-393.0,-360.0,-65.875,-56.8125,1.25,29.6875,-30.625,-19.3125,93653.0,4875.0,7239.05,842.3,-407.0,437.0,1278.0,81.0,176.0,447.0,60.375,64.6875,9.75,34.875,-29.125,-12.4375,93677.25,4816.2,7193.2,783.75,-787.0,-209.0,440.0,-202.0,-393.0,-360.0,-65.875,-56.8125,-34.0,28.8125,-37.75,-19.625,93650.0,LivingRoom ,EATING,0,0,1
4784.905882352941,7175.294117647059,780.1676470588235,-666.7647058823529,245.47058823529412,644.7647058823529,-16.294117647058822,-18.235294117647058,-28.529411764705884,5.775735294117647,12.786764705882353,-1.3823529411764706,38.224264705882355,-42.044117647058826,-21.308823529411764,93659.32352941176,4793.5,7174.25,778.8,-686.0,251.0,602.0,-21.0,-17.0,-13.0,4.3125,14.125,-6.25,38.875,-43.25,-22.3125,93661.0,45.46931617294562,26.94924559677493,23.025393191379983,177.46180202080276,107.14016383169457,201.8091701991527,152.44005572104496,76.69707410632161,179.88055677555136,35.352687715680496,65.52832186331668,22.843930427991086,2.3607776070452866,6.305951302463738,3.9920251672129727,6.4836119767229965,4800.0,7150.0,800.0,-945.0,41.0,333.0,-272.0,41.0,-13.0,-57.75,-89.5,-32.1875,36.3125,-43.25,-22.3125,93651.25,4837.95,7229.75,823.35,-247.0,425.0,1044.0,314.0,109.0,345.0,58.875,165.1875,41.25,41.1875,-29.0625,-15.3125,93666.0,4695.0,7138.05,747.3,-945.0,41.0,333.0,-272.0,-152.0,-277.0,-57.75,-89.5,-32.1875,33.5625,-52.0,-27.625,93651.25,LivingRoom ,EATING,0,0,0
4703.99375,7278.321875,750.3125,-675.9375,252.5,599.375,-26.0625,-26.875,-58.6875,-11.90625,-14.22265625,0.9140625,37.01171875,-43.4921875,-23.35546875,93651.859375,4705.025,7282.375,749.5,-699.0,292.0,512.5,25.0,7.0,-171.0,-2.6875,-7.34375,1.84375,37.4375,-40.65625,-23.53125,93650.75,10.118265249867084,19.735678087751005,9.563881708455678,150.61140671719832,147.39199435518879,339.6356626347318,104.12394457248215,114.52969047369332,302.2190637600481,52.90147583795119,74.10735796503133,13.55353726507709,2.3918501762495494,5.57705842977879,4.56274078987893,2.7823382702324317,4700.0,7300.0,750.0,-730.0,412.0,17.0,56.0,-252.0,-495.0,-93.375,-152.625,-33.4375,33.0625,-54.8125,-32.0625,93650.75,4721.75,7303.4,778.05,-318.0,472.0,1286.0,113.0,150.0,568.0,61.1875,94.6875,23.25,40.25,-38.375,-16.5625,93661.0,4684.65,7236.0,733.1,-862.0,0.0,17.0,-234.0,-252.0,-495.0,-93.375,-152.625,-33.4375,33.0625,-54.8125,-32.0625,93649.25,LivingRoom ,EATING,0,0,2
4744.1375,7204.0,773.559375,-645.3125,189.75,668.625,-37.625,-45.375,-0.1875,-1.76171875,20.0859375,-7.92578125,39.53125,-42.78125,-19.16796875,93637.90625,4747.575,7195.299999999999,774.0999999999999,-681.0,152.5,664.5,-14.5,-31.0,-10.0,3.4375,36.3125,-0.96875,39.28125,-41.5,-19.6875,93642.0,10.987121248686245,28.689806552153655,6.524165815131727,245.0384238577017,121.95709628116494,226.15153474311572,164.5530816079318,78.39207017719755,175.91824569005533,39.49401470179532,77.46513622739695,25.694481196013506,2.49196625846606,6.471974840288961,4.290354901670917,9.765532499561916,4750.0,7200.0,750.0,-1116.0,-26.0,338.0,-227.0,-164.0,-224.0,-62.4375,-144.9375,-58.375,36.1875,-56.625,-25.4375,93626.25,4756.5,7261.25,791.7,-161.0,370.0,1216.0,274.0,79.0,438.0,49.875,163.75,18.625,43.375,-33.1875,-12.125,93649.25,4720.9,7165.1,766.6,-1116.0,-26.0,338.0,-227.0,-164.0,-224.0,-62.4375,-144.9375,-58.375,36.1875,-56.625,-25.4375,93626.25,LivingRoom ,EATING,0,0,1
4741.871875,7160.971874999999,816.503125,-261.1875,-149.25,836.9375,-48.0625,-14.3125,-66.8125,-26.8828125,-53.01171875,3.234375,39.77734375,-15.75390625,6.72265625,93640.375,4744.875,7161.049999999999,820.05,-115.5,-171.5,817.0,-52.5,-17.0,-74.0,-17.90625,-17.40625,3.125,38.8125,-6.65625,9.125,93637.75,12.65466934573955,5.831351151319889,37.12240324812857,382.29590960406574,183.48823758849866,236.1929913580559,197.59334292092603,96.80338750959768,181.75192571194395,34.85390547072882,88.12346694514629,18.438121458453047,2.841743225080631,18.677644680400462,9.902492551068056,7.021395872616783,4750.0,7150.0,850.0,-961.0,-411.0,376.0,-221.0,-173.0,-526.0,-94.6875,-272.5,-23.9375,37.6875,-52.9375,-11.6875,93635.25,4756.05,7169.15,868.7,298.0,154.0,1213.0,243.0,131.0,186.0,29.6875,38.8125,43.125,44.625,-1.1875,17.6875,93652.0,4714.85,7151.2,766.85,-961.0,-411.0,376.0,-411.0,-173.0,-526.0,-94.6875,-272.5,-23.9375,36.3125,-52.9375,-11.6875,93635.25,LivingRoom ,EATING,2,0,0
4739.85,7164.1,919.58125,-197.375,-379.4375,853.1875,-20.375,-19.8125,-55.875,-0.48828125,13.47265625,2.08203125,36.484375,-14.76953125,21.2734375,93651.71875,4741.75,7163.65,919.5,-157.0,-383.5,840.5,-13.5,-12.0,-35.0,-7.3125,17.09375,1.3125,36.8125,-12.625,22.4375,93656.625,9.27352863441601,15.924425682998244,14.942666819101147,300.82727602396693,89.37708039536759,140.17523259596658,262.00912833970756,72.13063958309718,138.2755100032781,24.695438794757727,109.27570008724396,15.242189235221156,1.3944645029544496,12.850375293441498,2.9837122955305193,12.175410670691974,4750.0,7150.0,900.0,-63.0,-525.0,557.0,-745.0,-182.0,-73.0,-34.0,-149.9375,-23.125,35.3125,-37.375,16.5625,93637.25,4753.55,7191.1,943.75,368.0,-211.0,1141.0,419.0,89.0,149.0,44.5,284.5,25.9375,38.375,-1.25,25.5,93666.25,4718.2,7145.6,887.95,-985.0,-525.0,557.0,-745.0,-182.0,-386.0,-34.0,-149.9375,-23.125,34.6875,-37.375,16.5625,93637.25,LivingRoom ,EATING,2,0,0
4730.396875,7130.359375,913.2437500000001,-346.4375,-372.5,819.0,-2.8125,-37.5,-21.8125,0.13671875,8.09765625,4.85546875,36.62890625,-19.6640625,22.38671875,93649.3125,4728.875,7122.1,914.575,-329.0,-358.5,868.5,-10.0,1.0,-7.5,-7.0625,-6.40625,2.5,36.40625,-19.4375,23.375,93648.25,11.839390028629033,18.58773985498686,18.956598455419147,263.96993989215264,136.26395952953467,207.0639192777599,138.0517867806619,98.42425175399269,184.45278302770785,27.59864144782538,93.27365922143984,21.45606847371993,1.2263319183476933,11.456595512156596,4.041981436411066,11.203979947619803,4700.0,7100.0,900.0,-775.0,-673.0,395.0,-247.0,-244.0,-434.0,-37.25,-144.4375,2.5,34.625,-42.0625,15.8125,93648.25,4747.0,7158.45,937.05,83.0,-179.0,1247.0,328.0,79.0,380.0,50.0625,188.625,59.125,38.6875,-6.75,28.1875,93666.25,4716.65,7109.95,885.3,-775.0,-673.0,395.0,-247.0,-244.0,-434.0,-37.25,-144.4375,-23.5625,34.625,-42.0625,15.8125,93637.25,LivingRoom ,EATING,0,0,0
4711.975,7098.409374999999,905.628125,-433.9375,-339.25,743.375,30.875,-39.6875,-2.875,0.2421875,8.39453125,5.37890625,37.30859375,-28.0234375,23.0078125,93670.484375,4710.1,7094.950000000001,914.15,-274.0,-325.5,771.0,22.0,-10.5,-54.0,-2.84375,-28.59375,6.4375,37.59375,-19.25,21.90625,93669.0,6.800686239883102,14.076578878288114,28.851845514339864,435.87956574417814,112.34678455567831,311.1156001660262,240.09994446757653,99.4067192564634,165.67392673562125,25.111987457437532,120.3266035429501,18.576663630496867,0.8837269415898028,20.798147891799566,5.6094634974448905,13.663048936822264,4700.0,7100.0,900.0,-1153.0,-358.0,305.0,-438.0,-296.0,-251.0,-38.625,-216.375,-30.5,35.6875,-60.9375,22.0625,93669.0,4729.35,7117.05,944.9,132.0,-221.0,1164.0,492.0,71.0,279.0,42.9375,174.75,38.125,38.5,-4.5,33.75,93684.25,4704.7,7082.9,865.6,-1153.0,-617.0,305.0,-438.0,-296.0,-251.0,-38.625,-216.375,-30.5,35.6875,-60.9375,17.125,93637.25,LivingRoom ,EATING,2,0,0
4744.578125,7112.015625,872.5218749999999,-239.5625,-48.875,882.3125,15.3125,-12.25,-60.25,18.55859375,-18.88671875,-5.23046875,39.43359375,-15.6875,2.2265625,93669.140625,4743.375,7108.8,861.575,-239.0,-23.0,880.5,21.0,7.5,-58.0,17.5625,-2.3125,-4.6875,38.96875,-13.8125,-0.40625,93664.25,23.082684482457115,21.32655401723397,32.60595021745777,286.8521032983141,157.1461633851322,196.83519968068043,242.81837348108564,103.34763341912253,179.9323947116435,27.334716067191156,77.38374418398409,10.936028918927793,2.189875941834377,6.502563597023356,6.762021509566007,13.102152733425145,4750.0,7100.0,850.0,-835.0,-318.0,602.0,-527.0,-337.0,13.0,-32.0625,-161.75,-33.375,37.75,-33.25,-5.0625,93664.25,4782.75,7149.15,960.95,472.0,202.0,1349.0,609.0,128.0,357.0,57.5625,135.875,9.375,43.125,-9.625,15.3125,93684.25,4713.05,7085.6,844.35,-835.0,-318.0,602.0,-527.0,-337.0,-326.0,-32.0625,-161.75,-33.375,36.6875,-33.25,-5.0625,93644.25,LivingRoom ,EATING,1,0,0
4786.425,7194.671875,1016.725,-201.5625,-109.125,970.5,-0.375,-66.0,19.6875,-13.35546875,-11.9921875,6.0703125,39.90625,-11.65625,2.69140625,93652.453125,4790.0,7200.85,1021.2,-158.0,-98.5,964.0,-19.5,-66.5,13.0,-14.1875,-12.1875,6.3125,40.53125,-8.59375,3.5,93653.0,12.36641958423425,19.43800374481216,19.16682028923941,280.0949764514411,170.01053888901515,260.6520029976111,227.90900962153003,125.55583087482105,272.2270421908889,38.56858554595469,55.0416928857495,13.748823339804998,2.2511571098733496,8.57956025485378,3.666179092819253,6.444777439912103,4800.0,7200.0,1000.0,-158.0,-395.0,459.0,-28.0,-285.0,-561.0,-73.375,-63.25,-28.1875,40.375,-3.9375,3.875,93653.0,4802.65,7214.45,1039.6,436.0,265.0,1515.0,735.0,160.0,776.0,48.625,126.375,30.0625,42.6875,-3.4375,7.875,93660.0,4762.7,7152.6,974.0,-912.0,-395.0,459.0,-383.0,-285.0,-561.0,-73.375,-94.625,-28.1875,34.6875,-31.1875,-3.125,93644.25,LivingRoom ,EATING,1,0,2
4774.116666666666,7216.077777777778,953.1277777777777,-207.66666666666666,-79.55555555555556,972.6666666666666,-26.333333333333332,-47.111111111111114,12.777777777777779,1.0972222222222223,8.42361111111111,-5.708333333333333,37.77777777777778,-11.3125,1.5763888888888888,93665.75,4775.25,7218.65,952.6,-167.0,-65.0,989.0,3.0,-44.0,26.0,-11.75,12.0625,-7.25,36.6875,-10.125,1.0625,93661.0,9.811886923522854,13.95884824920909,15.035668240701646,103.14795199130229,114.76291987300506,135.7267475481528,89.27205609819906,65.69521376105806,139.1795403227229,27.907564203221757,24.07566153397682,9.130563372541697,2.639489606333854,4.268228372228927,2.9336373836265297,8.324474457886215,4800.0,7200.0,950.0,-378.0,-332.0,794.0,-208.0,-166.0,-179.0,-25.9375,-24.375,-18.875,34.625,-16.3125,-2.75,93661.0,4790.4,7230.85,981.8,-97.0,48.0,1173.0,85.0,30.0,212.0,43.375,47.75,10.8125,41.6875,-6.125,7.0,93676.75,4762.5,7193.45,933.65,-378.0,-332.0,794.0,-208.0,-166.0,-179.0,-25.9375,-24.375,-18.875,34.625,-16.3125,-2.75,93657.5,LivingRoom ,EATING,0,0,0
4788.49375,7205.99375,828.596875,-755.9375,-13.5,407.625,28.25,-25.125,-41.1875,9.72265625,80.265625,8.52734375,43.44921875,-58.49609375,-3.6015625,93657.546875,4798.325,7208.025,830.425,-808.0,-31.0,420.5,3.5,-27.0,-46.0,7.875,99.96875,10.09375,43.59375,-69.25,-0.9375,93655.0,20.48444023317857,9.663002897650411,61.82278562889791,346.40698005862026,153.35666489157447,429.6623286566634,180.4632926664035,124.61881880358199,251.97174940853984,28.00465891997184,105.98175329390432,15.401636289389028,0.8226034477752124,24.963206974945315,9.688101459823454,10.37232646275656,4800.0,7200.0,800.0,-1316.0,75.0,-466.0,-340.0,-24.0,-521.0,-39.5,-139.0,14.0,42.375,-83.6875,-30.0625,93649.25,4805.3,7219.95,929.8,-90.0,393.0,1006.0,333.0,316.0,456.0,62.25,280.25,39.4375,44.875,-14.25,6.625,93676.75,4743.75,7191.7,736.85,-1316.0,-223.0,-466.0,-340.0,-206.0,-521.0,-39.5,-139.0,-29.875,42.1875,-83.6875,-30.0625,93649.25,LivingRoom ,EATING,2,0,1
4702.721874999999,7184.628125,686.484375,-888.6875,368.3125,-132.375,-22.8125,-36.4375,-34.6875,-9.43359375,22.5859375,27.60546875,108.56640625,-64.5703125,-105.625,93648.34375,4694.075,7186.15,681.825,-902.5,418.5,-131.5,-18.5,-35.0,-36.0,-14.53125,19.25,33.59375,36.625,-63.0625,-107.71875,93646.0,18.27475461531569,9.490977623511599,23.175653307943666,101.13207124020221,127.85185111422255,65.02396993929752,40.55484968944323,47.6444732716538,39.926129706413235,26.246621496374697,19.84539035214895,19.994578936525727,148.3684189581483,10.947290261178791,6.100589110897406,12.59195344919392,4700.0,7200.0,700.0,-1061.0,142.0,-231.0,-89.0,-136.0,-95.0,-44.75,-4.5,-11.125,1.6875,-51.875,-103.0,93646.0,4742.7,7199.95,737.7,-723.0,520.0,-16.0,39.0,25.0,56.0,48.5,58.3125,46.625,358.125,-51.875,-95.4375,93665.0,4685.65,7163.8,660.35,-1061.0,142.0,-231.0,-89.0,-136.0,-95.0,-44.75,-4.5,-11.125,1.6875,-82.375,-113.75,93634.5,LivingRoom ,EATING,0,0,0
4713.543333333334,7205.930000000001,721.47,-752.0666666666667,327.8,354.53333333333336,-54.266666666666666,-19.6,-60.6,13.491666666666667,-89.22916666666667,-18.591666666666665,39.19583333333333,-47.204166666666666,-49.72083333333333,93640.86666666667,4707.2,7206.6,705.75,-777.0,347.0,535.0,-34.0,-22.0,-49.0,12.5,-89.0,-14.3125,48.75,-47.8125,-27.125,93645.25,11.15430516928444,8.482625099073326,35.430141526268685,175.08996327058625,60.33383319971828,451.09072047121305,76.20598651649607,49.80361432667313,69.04739573034495,15.32351765921849,61.898172368491814,16.969837124256955,17.661229017728825,13.083127652311074,37.829326736138505,5.605216532922915,4700.0,7200.0,700.0,-969.0,258.0,-433.0,-51.0,-147.0,-186.0,-3.125,-198.6875,-44.8125,0.4375,-65.625,-20.5,93635.25,4730.1,7221.0,790.75,-451.0,433.0,801.0,58.0,67.0,57.0,56.3125,-19.5,1.5625,54.25,-29.375,-20.25,93647.75,4700.75,7189.35,683.05,-969.0,241.0,-433.0,-241.0,-147.0,-186.0,-3.125,-198.6875,-44.8125,0.4375,-65.625,-118.1875,93634.5,LivingRoom ,EATING,0,0,1
4708.603125,7197.0625,821.1375,-493.0625,535.0,613.4375,-61.125,-22.5,-48.375,2.59375,24.73828125,19.83203125,34.4921875,-26.046875,-39.4140625,93642.03125,4714.575000000001,7198.35,816.8,-518.5,465.0,604.0,-53.5,-22.0,-51.0,8.40625,24.25,12.5625,27.15625,-28.15625,-42.9375,93641.0,16.393499410335483,15.363772323228451,21.825195684498837,189.13045541812315,263.31881816535633,118.68219116615602,120.81328569325478,243.19100860571854,75.76883704179883,30.272701536753097,34.706359128152464,53.12955234784396,11.548964487310828,6.513907397509834,9.569343275751303,3.498660457946727,4700.0,7200.0,800.0,-799.0,293.0,610.0,-136.0,-294.0,-71.0,-45.6875,-21.875,-43.25,26.25,-35.5625,-49.625,93639.25,4725.85,7220.4,857.05,-163.0,1452.0,802.0,138.0,734.0,103.0,49.125,87.0,98.9375,55.25,-16.5,-20.75,93647.75,4675.4,7168.9,787.25,-799.0,293.0,412.0,-330.0,-294.0,-160.0,-45.6875,-21.875,-43.25,25.875,-35.5625,-49.625,93639.25,LivingRoom ,EATING,0,1,0
4656.893749999999,7209.984375,781.4718750000001,-453.5,394.9375,755.625,-27.75,-40.1875,-7.1875,-3.9140625,-18.45703125,3.48828125,30.4296875,-25.23046875,-29.53125,93666.15625,4654.425,7205.025,785.525,-449.0,385.0,786.5,-9.5,-37.0,24.0,-11.96875,-28.625,3.15625,30.46875,-23.90625,-29.125,93661.0,10.868039918341513,20.97484778450928,13.601849981405715,113.00147491662811,94.25459758901242,164.75471667502168,74.021168143534,64.04604463457001,154.70109620383,32.522042805290795,50.215554730073016,15.088199354648818,2.063683372637382,4.8004838487689625,2.9652501299777954,19.429117967627867,4650.0,7200.0,800.0,-709.0,227.0,424.0,-156.0,-157.0,-331.0,-53.6875,-81.5,-23.8125,26.75,-23.3125,-36.5,93686.5,4676.0,7244.55,797.25,-260.0,595.0,1026.0,95.0,103.0,258.0,51.5625,84.25,30.9375,33.375,-18.6875,-25.625,93686.5,4642.55,7186.35,754.5,-709.0,227.0,424.0,-156.0,-157.0,-331.0,-53.6875,-81.5,-23.8125,26.75,-34.75,-36.5,93645.0,LivingRoom ,EATING,0,0,0
4657.588235294119,7224.873529411765,806.2941176470589,-346.29411764705884,562.2352941176471,644.1764705882352,-44.76470588235294,-46.11764705882353,-48.1764705882353,8.602941176470589,23.56985294117647,1.3713235294117647,27.746323529411764,-17.845588235294116,-41.17279411764706,93658.67647058824,4658.85,7225.35,810.2,-207.0,587.0,678.0,-29.0,-36.0,-48.0,0.375,-7.6875,2.0625,28.125,-15.125,-42.75,93660.5,8.681815215793101,8.51563117242093,15.615385865718917,256.78341182450885,80.15183202192317,88.6208463724236,132.1261373705846,78.00391204367668,36.567122005494305,18.72473481611485,60.41196414043453,30.706066737159805,2.57452121119865,8.851120979915649,4.125623142549284,3.9496486254736487,4650.0,7250.0,800.0,-865.0,661.0,678.0,-248.0,-171.0,-126.0,-11.6875,-58.75,-60.625,30.8125,-38.3125,-42.8125,93653.75,4671.05,7242.55,829.85,-62.0,661.0,748.0,189.0,110.0,7.0,42.375,158.375,48.4375,30.8125,-9.5,-31.75,93664.5,4638.85,7211.65,784.7,-865.0,396.0,380.0,-248.0,-171.0,-126.0,-11.6875,-58.75,-60.625,23.0,-38.3125,-47.4375,93653.75,LivingRoom ,EATING,0,0,0
4696.5233333333335,7208.8600000000015,782.4333333333333,-622.0,543.6666666666666,513.4,-44.86666666666667,-33.13333333333333,-24.933333333333334,6.816666666666666,-14.729166666666666,-2.4791666666666665,34.4125,-36.25,-47.17916666666667,93656.06666666667,4683.85,7213.8,776.45,-631.0,540.0,532.0,-44.0,-34.0,-27.0,5.375,-12.25,-3.3125,35.0,-34.1875,-46.3125,93654.5,26.149678136961214,13.878853390268649,13.254657761743688,76.79564719807645,21.842509885432992,59.51806448465877,41.536329479946424,10.534749754073536,23.389456314046008,4.703927563622714,24.391851622934208,5.742263169650431,5.091616007853358,3.4421235140119952,2.1837808519912913,5.402104968920733,4700.0,7200.0,800.0,-765.0,557.0,429.0,-112.0,-39.0,-3.0,1.0,-66.6875,-10.375,28.1875,-41.1875,-50.6875,93651.75,4746.35,7222.6,804.5,-476.0,574.0,635.0,46.0,-13.0,11.0,17.0625,19.875,7.1875,42.9375,-32.25,-44.5625,93664.5,4671.25,7178.1,764.5,-765.0,511.0,429.0,-112.0,-53.0,-80.0,1.0,-66.6875,-10.375,28.1875,-41.1875,-50.6875,93651.75,LivingRoom ,EATING,0,0,0
4719.211111111112,7189.311111111111,812.411111111111,-538.2222222222222,505.44444444444446,603.4444444444445,-37.77777777777778,-24.444444444444443,-56.888888888888886,-3.4375,-9.70138888888889,6.854166666666667,51.625,-29.631944444444443,-39.263888888888886,93662.33333333333,4721.75,7187.75,812.65,-528.0,488.0,637.0,-24.0,-50.0,-56.0,-1.6875,-31.25,8.0625,51.5,-29.125,-39.6875,93657.5,12.50609295947814,4.736281358947289,11.253882046259024,124.57906904630667,89.53227226971164,141.57516652922496,98.5618812951764,58.32690440763831,139.03097176928281,39.14556168967307,62.98719315651485,13.063359720512178,3.9456760352314784,3.799342619490611,3.182406742327434,7.25,4700.0,7200.0,800.0,-797.0,400.0,401.0,-236.0,-81.0,-265.0,-67.5,-89.9375,-12.75,48.875,-34.875,-43.0,93657.5,4735.55,7198.6,832.4,-405.0,655.0,807.0,130.0,86.0,149.0,41.25,108.1875,23.25,56.5625,-24.4375,-34.625,93672.0,4701.35,7185.1,796.05,-797.0,400.0,401.0,-236.0,-81.0,-265.0,-67.5,-89.9375,-12.75,46.4375,-34.875,-43.0,93657.5,LivingRoom ,EATING,0,0,0
4692.05625,7230.0625,872.3875,-551.5625,353.1875,720.3125,-21.25,-44.125,-2.8125,0.50390625,3.27734375,-14.73046875,65.47265625,-32.88671875,-28.90625,93667.21875,4684.15,7228.299999999999,874.7249999999999,-548.0,324.0,680.0,13.0,-39.5,5.5,-5.4375,-15.71875,-8.84375,69.71875,-32.53125,-30.25,93672.0,22.372742902916542,14.962035289358232,9.02052289689092,157.3827473602703,121.35964114976609,184.26709554339865,85.32018127813217,95.49301894204972,143.51223815410307,36.54892175756523,46.31001718912758,26.54685047575873,10.802632027610601,4.253810714989365,6.477766461777804,16.64528837238935,4700.0,7250.0,850.0,-366.0,319.0,489.0,-219.0,-139.0,-259.0,-61.875,-19.5,-61.0625,75.6875,-40.5,-38.5625,93682.5,4735.1,7253.2,882.1,-206.0,520.0,1094.0,74.0,108.0,257.0,59.125,93.4375,23.6875,76.9375,-23.25,-18.8125,93682.5,4668.45,7198.9,848.8,-858.0,140.0,489.0,-219.0,-162.0,-259.0,-61.875,-52.375,-61.0625,49.75,-40.5,-38.5625,93647.0,LivingRoom ,EATING,0,0,0
4789.24375,7209.853125,847.015625,-626.875,217.8125,684.125,3.4375,-29.75,-9.9375,-2.5390625,-0.6328125,1.33984375,80.8125,-40.91015625,-19.8671875,93651.84375,4795.075,7206.25,855.7,-571.0,244.0,658.0,29.5,-21.0,-79.5,-4.0625,-11.96875,4.28125,80.15625,-39.0625,-20.1875,93648.75,22.305730765881716,13.245080454644315,30.49858312965812,146.4886229939604,119.37683680960333,210.0040872618118,101.27781510939764,74.87010974570114,195.82354940098497,38.77734838015402,49.44643500694295,10.972217964353955,2.4647515087732477,5.983613419773345,3.519578795230096,4.0237575722202745,4800.0,7200.0,850.0,-898.0,-12.0,658.0,-154.0,-177.0,-264.0,-63.9375,-62.8125,-21.4375,80.125,-50.0625,-24.375,93656.25,4817.3,7235.9,885.6,-455.0,369.0,1191.0,142.0,58.0,467.0,50.0625,118.125,17.5625,85.25,-33.0625,-13.9375,93656.25,4750.05,7191.5,801.55,-898.0,-12.0,370.0,-154.0,-177.0,-264.0,-63.9375,-62.8125,-21.4375,77.625,-50.0625,-24.375,93648.0,LivingRoom ,EATING,0,0,1
4801.256666666666,7208.026666666667,792.1700000000001,-533.2666666666667,216.93333333333334,790.2666666666667,-25.066666666666666,-46.0,6.133333333333334,-0.8791666666666667,-3.158333333333333,-0.6625,86.71666666666667,-32.88333333333333,-19.004166666666666,93651.31666666667,4801.85,7206.85,791.5,-500.0,222.0,739.0,0.0,-36.0,-25.0,20.75,10.125,-3.375,85.875,-32.375,-19.3125,93651.75,6.232657844733951,15.251063975374107,7.714591925139564,194.70984517872694,100.3347729686307,193.55488947090754,106.49109061772435,71.23803157623843,158.0107892639282,36.00902406325524,67.46169906527562,11.709199679861008,3.8573088864178473,6.657596135958069,2.7867338259451095,1.3577379647606458,4800.0,7200.0,800.0,-932.0,33.0,549.0,-241.0,-173.0,-122.0,28.75,-134.4375,-17.1875,81.25,-45.0,-15.8125,93651.75,4810.75,7238.0,805.0,-194.0,388.0,1302.0,130.0,73.0,409.0,40.6875,95.875,26.0,93.625,-23.6875,-15.3125,93652.25,4792.6,7192.15,781.35,-932.0,33.0,549.0,-241.0,-173.0,-202.0,-61.1875,-134.4375,-17.1875,81.25,-45.0,-23.25,93648.0,LivingRoom ,EATING,0,0,1
4767.034374999999,7264.884375,801.403125,-558.6875,256.4375,721.25,8.625,-25.0625,-29.3125,-7.73046875,9.66796875,-2.12890625,93.87890625,-34.375,-20.50390625,93650.1875,4766.0,7262.5,801.5999999999999,-532.5,228.0,690.0,-10.0,-11.5,-46.5,3.375,36.6875,-0.5,94.21875,-32.84375,-19.6875,93652.25,5.745801909510316,9.27100711447616,8.658376844613153,176.95676260977802,98.60288619846108,182.92858351462374,154.0644345720322,74.3213461934053,162.24619923642794,35.99413811324873,107.69094891640441,22.82046628885188,3.131449074676398,5.0253005714418055,3.27796214244333,12.137236093938355,4750.0,7250.0,800.0,-873.0,33.0,421.0,18.0,-204.0,-270.0,-78.0,-238.1875,-34.8125,90.625,-31.25,-17.125,93636.0,4781.4,7281.5,819.35,-150.0,392.0,1102.0,433.0,66.0,351.0,31.875,126.3125,29.4375,97.625,-26.75,-16.125,93663.0,4761.25,7247.15,783.45,-873.0,33.0,421.0,-220.0,-204.0,-270.0,-78.0,-238.1875,-34.8125,88.5,-43.5625,-25.625,93636.0,LivingRoom ,EATING,0,0,0
4764.44375,7216.66875,770.0,-522.9375,230.4375,757.1875,-35.875,-40.0,-23.125,-1.4921875,4.26171875,-6.828125,100.6875,-33.21875,-19.55859375,93647.25,4766.6,7216.25,768.75,-542.0,217.0,765.5,-11.5,-38.0,-34.5,11.40625,7.59375,-5.78125,99.15625,-33.78125,-19.0625,93638.25,10.595295732855632,13.213312415893364,11.978745065044725,171.40302165753477,95.89853579000395,206.76144668030673,94.25276300105655,70.33917827214077,167.45979617010565,34.46055168443815,71.33157690625023,10.623320945762048,5.109682393913213,5.147511534712671,2.6231609381224907,15.70350279396288,4750.0,7200.0,750.0,-853.0,13.0,441.0,-240.0,-36.0,-277.0,-68.25,-171.5,-24.0,93.6875,-40.0,-19.5625,93633.75,4777.15,7250.45,791.0,-129.0,421.0,1197.0,136.0,87.0,415.0,44.5,114.5,10.3125,107.4375,-24.625,-16.1875,93666.75,4744.4,7201.95,754.25,-853.0,13.0,441.0,-240.0,-213.0,-277.0,-68.25,-171.5,-24.0,93.6875,-40.0,-24.75,93633.75,LivingRoom ,EATING,0,0,0
4771.771875,7225.946875,823.1312499999999,-620.375,185.9375,707.875,-6.9375,-52.9375,-3.125,6.17578125,22.49609375,0.78515625,109.89453125,-39.84765625,-19.4609375,93646.28125,4770.925,7225.1,825.275,-575.5,165.0,743.0,13.0,-61.0,12.0,10.21875,29.90625,0.96875,110.09375,-38.5,-18.84375,93646.375,6.861680278911232,19.466154120678247,15.728560805108646,122.27775758493448,123.66161827072025,225.2485664031331,93.85340963438675,121.18331499564341,176.08288767888075,24.103284902663336,42.75885305961747,15.409733273398722,1.9829637370087398,4.827491193566109,4.374099609729222,10.082524072208638,4750.0,7200.0,800.0,-881.0,-12.0,327.0,-172.0,-279.0,-345.0,26.875,-69.375,-33.8125,106.8125,-51.8125,-27.4375,93636.0,4782.25,7248.95,844.45,-410.0,460.0,1156.0,176.0,153.0,396.0,40.5,83.125,28.125,112.6875,-33.9375,-14.375,93656.5,4759.7,7183.95,795.5,-881.0,-12.0,327.0,-172.0,-279.0,-345.0,-58.0,-69.375,-33.8125,106.8125,-51.8125,-27.4375,93636.0,LivingRoom ,EATING,0,0,0
4759.69375,7156.634375,697.478125,-948.8125,252.125,205.4375,-32.0625,-12.0625,-21.25,0.3515625,12.60546875,4.16015625,106.72265625,-68.51953125,-50.95703125,93652.90625,4759.05,7158.5,693.1,-974.0,235.5,221.0,-47.0,-14.0,-8.5,0.59375,19.5,1.78125,107.53125,-70.71875,-50.25,93654.5,11.482172776381056,11.214584533098037,61.93796081227839,103.55495722883897,70.0560489893628,133.13450279072413,104.57499302733262,42.111706606754055,84.18669728644781,18.543542157019697,54.564486498536375,16.74183521075149,2.131603556939783,4.732573227004346,10.902544589022556,9.9957803597318,4750.0,7150.0,650.0,-1060.0,144.0,-65.0,-65.0,-19.0,-236.0,-34.8125,-109.9375,5.3125,107.625,-73.0625,-72.0,93641.25,4778.25,7174.1,796.7,-630.0,402.0,440.0,241.0,61.0,81.0,24.625,78.8125,40.25,108.6875,-56.8125,-29.6875,93663.5,4745.4,7139.65,617.65,-1060.0,144.0,-65.0,-223.0,-119.0,-236.0,-34.8125,-109.9375,-17.125,101.8125,-73.0625,-72.0,93641.25,LivingRoom ,EATING,0,0,0
4729.18125,7215.040625,620.075,-883.6875,305.75,342.4375,-0.125,-43.0,4.0625,6.703125,-0.4921875,1.890625,97.67578125,-59.453125,-45.3359375,93661.1875,4727.525,7218.2,605.875,-870.5,288.5,388.0,-19.5,-46.0,8.5,7.46875,2.25,2.4375,97.875,-59.15625,-41.84375,93661.75,6.2255086806890265,20.87501871256637,31.30760291047526,82.0737219415163,59.23906368830171,175.91663508605433,153.1734855210479,51.28222564072923,131.44502970189984,21.399687254334662,55.03133044665708,13.444513673490265,5.270802968456672,1.7900913617280358,7.186680206871134,5.119814449762804,4750.0,7200.0,600.0,-1025.0,302.0,388.0,-163.0,-117.0,-370.0,-36.6875,-120.125,-6.6875,91.3125,-58.9375,-39.3125,93655.75,4739.6,7244.4,681.8,-751.0,461.0,554.0,464.0,75.0,185.0,38.6875,90.1875,24.125,104.5,-56.5,-37.625,93668.5,4719.5,7181.05,587.65,-1025.0,243.0,-143.0,-163.0,-117.0,-370.0,-36.6875,-120.125,-29.75,89.3125,-62.8125,-60.0,93655.75,LivingRoom ,EATING,0,0,0
4718.346874999999,7224.05625,728.1312499999999,-554.125,120.75,699.9375,0.375,-11.875,-20.0,-26.96484375,-50.28515625,-7.38671875,97.953125,-36.19140625,-15.359375,93647.4375,4718.6,7227.049999999999,727.025,-473.0,158.5,754.5,-16.0,-21.5,-27.5,-28.0625,-28.375,8.53125,98.90625,-26.09375,-7.34375,93651.75,3.443954546254419,10.850773781932082,41.278694565114336,281.0074435550299,168.3339933980458,281.8341045721756,122.678373535572,97.56698553643372,97.5404189725128,20.211021755236054,70.03055497107881,29.35559836894759,3.8788623224686214,16.178504076107437,19.294368511304018,10.862205116825956,4700.0,7250.0,700.0,-991.0,-126.0,148.0,-160.0,-145.0,-236.0,-65.25,-197.0,-67.0625,101.375,-24.375,-57.25,93651.75,4724.9,7240.65,787.0,-180.0,337.0,1020.0,240.0,142.0,139.0,11.5625,66.6875,26.125,102.3125,-22.625,3.3125,93668.5,4712.45,7199.85,673.15,-991.0,-126.0,148.0,-160.0,-145.0,-236.0,-65.25,-197.0,-67.0625,89.4375,-61.875,-57.25,93636.75,LivingRoom ,EATING,0,0,1
4725.59375,7170.240624999999,830.253125,-339.0,-250.3125,812.625,24.25,-24.0625,-34.9375,-13.3671875,16.45703125,10.01171875,92.38671875,-21.65625,14.75390625,93651.28125,4725.075000000001,7172.825000000001,830.775,-310.0,-260.5,865.0,7.0,-37.0,-40.0,-19.3125,34.5,11.5,92.625,-19.40625,16.5625,93653.0,9.733582331289927,17.66838248350233,17.6031007566849,280.3913931156471,88.37776398317999,213.9058593556209,139.37407697751163,56.276068033697356,150.81576785380676,23.929343421048976,107.8835833750852,8.218855948303167,2.4182701666601134,15.027804092193021,4.844588301114107,9.086104317399545,4700.0,7150.0,850.0,-956.0,-406.0,859.0,-69.0,-72.0,-317.0,-46.375,-212.5,-7.6875,95.3125,-47.9375,20.0,93653.0,4739.45,7194.0,857.85,42.0,-97.0,1074.0,319.0,141.0,283.0,31.5625,215.3125,18.8125,95.4375,-2.625,21.75,93661.25,4708.55,7138.75,795.15,-956.0,-406.0,292.0,-227.0,-89.0,-317.0,-46.375,-212.5,-7.6875,89.0625,-47.9375,4.9375,93639.25,LivingRoom ,EATING,1,0,1
4725.171875,7151.546875,826.440625,-545.8125,-172.9375,599.5,65.0625,-39.8125,-1.875,11.203125,50.3984375,4.62109375,100.37109375,-43.69140625,13.98828125,93652.484375,4731.4,7146.674999999999,824.825,-483.5,-174.0,712.0,86.0,-9.5,19.5,7.40625,25.0625,2.09375,100.65625,-34.15625,14.0625,93651.0,16.565194120504586,11.241448138474079,7.1753796357173,411.70931796596494,120.62419257070006,390.24043870414044,166.6995175957827,119.70308754024127,220.27887627580938,25.117686539236317,126.59770575157553,17.162344754547917,3.133942932998568,27.53150154775359,1.8712766851248017,6.758617184750147,4750.0,7150.0,800.0,-1133.0,-396.0,-150.0,-216.0,-256.0,-362.0,-14.75,-172.625,-18.125,94.8125,-80.3125,16.5625,93651.0,4746.6,7172.3,839.65,140.0,52.0,1152.0,355.0,121.0,544.0,65.125,265.4375,32.625,104.3125,-10.875,16.5625,93661.25,4700.6,7138.55,814.25,-1133.0,-396.0,-150.0,-216.0,-256.0,-362.0,-14.75,-172.625,-18.125,94.8125,-80.3125,10.5625,93641.0,LivingRoom ,EATING,2,0,2
4657.7,7179.878124999999,743.359375,-970.9375,126.625,-33.5625,-18.375,-21.0,10.5625,9.2265625,13.78515625,22.92578125,101.60546875,-79.5,-105.83984375,93654.625,4652.825,7178.9,724.15,-963.0,136.0,-57.5,-20.0,-11.5,12.0,8.53125,11.625,26.65625,104.15625,-81.03125,-109.96875,93656.25,27.937626957205854,12.429199072479708,37.35985019041165,67.93866719328545,125.90942511715845,81.47062354002207,54.24374003821393,27.35933722394118,31.33681275007612,12.682293163928728,22.792268068885956,11.736699447983307,5.357661898218756,7.283328565978607,60.37450383142395,8.418234177466594,4650.0,7200.0,700.0,-963.0,-76.0,-148.0,-34.0,-13.0,-44.0,-8.375,-35.9375,-1.875,91.5625,-89.125,-179.5,93661.25,4703.25,7200.9,826.6,-825.0,280.0,126.0,84.0,9.0,66.0,27.1875,49.0625,36.0,106.375,-68.0625,1.625,93661.25,4624.55,7157.95,711.8,-1129.0,-76.0,-148.0,-133.0,-76.0,-44.0,-8.375,-35.9375,-1.875,91.5625,-89.125,-179.5,93641.0,LivingRoom ,EATING,0,0,0
4572.892857142857,7235.039285714285,696.4607142857143,-927.5714285714286,337.7142857142857,-132.92857142857142,-28.214285714285715,-20.642857142857142,-9.5,-3.669642857142857,3.736607142857143,9.852678571428571,91.03571428571429,-67.08482142857143,-109.52678571428571,93656.0,4569.65,7234.45,695.675,-936.0,322.0,-133.0,-25.5,-12.5,-3.0,-0.03125,2.28125,6.3125,93.6875,-68.84375,-110.6875,93662.0,21.542363068925543,15.586830962403743,6.922821194910591,57.31386499686722,52.074545046099466,32.18567355855059,41.02378029205194,25.95738265476152,34.38637923543386,9.081774217605304,5.915530131580547,14.99654621982514,5.119116832311716,3.435323361821231,1.9292962618359228,9.24350083530627,4550.0,7250.0,700.0,-1010.0,325.0,-168.0,-106.0,-8.0,-44.0,-20.5625,0.0,-15.0625,94.625,-69.8125,-110.875,93645.75,4615.25,7264.35,710.6,-827.0,416.0,-68.0,35.0,14.0,61.0,7.3125,12.25,37.6875,94.8125,-60.1875,-105.5625,93664.25,4538.8,7205.3,685.45,-1010.0,265.0,-174.0,-106.0,-71.0,-65.0,-20.5625,-7.875,-15.0625,80.25,-69.8125,-111.125,93645.75,LivingRoom ,EATING,0,0,0
4616.318181818182,7194.636363636362,678.6636363636363,-787.4545454545455,546.9090909090909,-166.0909090909091,-16.545454545454547,-31.272727272727273,-7.636363636363637,-11.431818181818182,15.994318181818182,7.1022727272727275,60.89772727272727,-51.625,-106.80681818181819,93643.84090909091,4608.7,7201.2,674.0,-799.0,544.0,-172.0,-16.0,-39.0,-14.0,-22.4375,14.5625,4.0625,57.75,-50.5,-106.5,93637.5,19.281328698086206,24.83988819327787,21.875101038727692,66.86308942363289,16.819361138013214,33.83623662718579,45.10734671062716,41.950186910408185,87.20123018314905,25.522561320597042,10.263423167425008,17.847843723211543,7.316626652234062,2.5696546460565477,3.1836317883254597,7.358899991908375,4600.0,7200.0,650.0,-926.0,521.0,-166.0,-99.0,-53.0,-234.0,-38.0625,2.5625,-12.8125,54.3125,-57.4375,-111.75,93637.5,4657.6,7226.6,713.15,-714.0,575.0,-80.0,38.0,75.0,92.0,30.25,33.375,33.75,75.9375,-49.5625,-102.3125,93653.25,4594.2,7148.65,651.45,-926.0,521.0,-202.0,-99.0,-77.0,-234.0,-38.0625,2.5625,-12.8125,54.3125,-57.4375,-111.75,93637.5,LivingRoom ,EATING,0,0,0
4688.385294117647,7154.267647058824,715.4205882352941,-549.0588235294117,661.1176470588235,206.05882352941177,-25.0,-44.470588235294116,-71.29411764705883,6.919117647058823,-81.52573529411765,32.20220588235294,86.80882352941177,-33.830882352941174,-73.30514705882354,93649.19117647059,4688.8,7158.25,710.35,-481.0,591.0,281.0,-21.0,-9.0,0.0,-4.375,-36.0625,22.9375,91.1875,-30.6875,-59.4375,93653.25,9.490254289037187,9.846127747375988,34.65826497218741,310.4268171784284,254.94530843715805,437.8286580656061,108.32358930537707,102.48970536537975,139.5818598107766,40.73959657213476,83.23044609773923,29.726442627975825,12.375640580568417,18.22882125022883,28.60900278254027,5.562520654290801,4700.0,7150.0,700.0,-997.0,500.0,-415.0,57.0,-129.0,0.0,-47.0,-289.75,-8.3125,90.0625,-56.125,-115.875,93642.75,4704.35,7164.15,791.55,-164.0,1611.0,699.0,219.0,73.0,74.0,69.25,-9.5625,81.0625,100.125,-9.625,-43.625,93654.0,4674.5,7134.0,670.15,-997.0,500.0,-415.0,-195.0,-269.0,-442.0,-47.0,-289.75,-8.3125,60.125,-56.125,-115.875,93642.75,LivingRoom ,EATING,0,1,2
4700.89,7168.94,861.1600000000001,-154.4,645.8666666666667,667.4,-10.0,-26.666666666666668,-25.466666666666665,-0.3625,6.3375,0.6375,91.62083333333334,-8.304166666666667,-44.02916666666667,93643.85,4698.95,7170.0,872.8,-147.0,651.0,659.0,-18.0,-27.0,-25.0,-1.25,5.1875,-1.6875,91.75,-7.625,-44.0625,93638.75,7.28295956325433,9.99137485176949,24.895590544741637,41.68384407828598,10.828973481667903,17.84376641855637,24.825102503025327,6.704653678780207,14.66222876581021,3.0069859137871404,10.119233366642526,6.558765944465903,0.7750528015807022,1.7194181601704135,0.4070162188180618,6.679392615671406,4700.0,7150.0,850.0,-142.0,651.0,659.0,-29.0,-31.0,-42.0,-1.25,4.3125,-1.6875,91.3125,-6.875,-44.4375,93638.75,4713.7,7181.95,891.35,-82.0,661.0,713.0,48.0,-15.0,6.0,4.4375,23.9375,14.5625,92.75,-6.6875,-43.375,93651.75,4690.55,7149.3,808.65,-240.0,627.0,649.0,-40.0,-37.0,-44.0,-5.1875,-15.875,-7.3125,90.4375,-12.4375,-44.5625,93638.25,LivingRoom ,EATING,0,0,0
4704.471875,7142.5,786.88125,-273.0625,634.125,648.625,-10.8125,-24.5625,-25.5,0.640625,3.171875,-1.0,93.55859375,-15.4765625,-44.3515625,93644.296875,4703.625,7141.674999999999,788.075,-266.0,633.0,647.0,-8.0,-25.5,-25.0,0.875,1.78125,-1.03125,93.625,-15.71875,-44.3125,93638.25,6.204701678297399,16.39638171467519,45.380483598862924,19.05594832766574,5.3650100962937,11.164676439557038,15.892215075312818,4.912144813283366,8.906926143924924,1.0444546024919736,4.884046094172331,1.0942558354120546,0.6588613718314852,0.9543963515402463,0.27939201104064043,10.734763912168725,4700.0,7150.0,800.0,-265.0,630.0,646.0,-8.0,-28.0,-31.0,1.0,-5.6875,-1.1875,94.25,-16.625,-44.1875,93633.75,4715.3,7172.3,857.6,-239.0,642.0,671.0,27.0,-18.0,-7.0,2.125,13.8125,0.375,94.4375,-13.4375,-44.0,93656.25,4696.75,7114.65,710.0,-314.0,627.0,632.0,-43.0,-32.0,-40.0,-1.25,-5.6875,-3.9375,92.3125,-16.625,-44.875,93633.75,LivingRoom ,EATING,0,0,0
4740.385294117647,7111.226470588234,733.6117647058825,-356.7647058823529,591.4705882352941,646.4705882352941,-7.647058823529412,-16.764705882352942,-27.529411764705884,-9.272058823529411,-14.492647058823529,-27.66176470588235,101.74632352941177,-20.863970588235293,-41.963235294117645,93656.91176470589,4743.4,7109.3,730.35,-301.0,636.0,652.0,-2.0,-12.0,-14.0,-0.8125,2.3125,-27.3125,96.375,-19.0,-44.875,93657.5,9.068209661812427,17.58902461095294,40.14257220135722,136.20918168930677,72.87670893970414,57.78745284127302,84.90873127693537,80.03556194886488,42.12202162625095,23.50789367483981,39.63350092636464,26.801772136557062,9.0891974909456,4.569837597875431,6.760302425089907,2.011570391802502,4750.0,7100.0,700.0,-266.0,435.0,717.0,-166.0,-12.0,-65.0,-56.375,-111.6875,-66.75,95.375,-16.5625,-44.875,93657.5,4754.75,7144.5,803.95,-140.0,660.0,718.0,199.0,164.0,49.0,24.1875,29.8125,1.3125,122.4375,-16.5,-24.625,93658.75,4724.05,7088.95,682.15,-630.0,435.0,502.0,-166.0,-167.0,-116.0,-56.375,-111.6875,-66.75,94.75,-29.375,-46.75,93654.0,LivingRoom ,EATING,0,0,0
4745.149999999999,7201.136666666667,845.7066666666666,-441.4,285.3333333333333,853.0,-15.4,0.5333333333333333,20.133333333333333,-4.6875,11.370833333333334,1.3291666666666666,124.49166666666666,-25.954166666666666,-18.866666666666667,93655.3,4743.6,7208.7,856.05,-476.0,288.0,843.0,-13.0,0.0,26.0,1.375,7.5625,6.1875,124.75,-25.8125,-18.75,93655.25,6.885595731048114,42.56711703158855,23.35853978639034,139.04356973882068,88.2736545931916,150.7334449568888,131.6677637085099,51.39742443056109,135.0951340281923,30.85546482912595,31.86010214407594,24.835266034171955,3.1117457012943417,2.4016905628169107,2.865655102531822,3.024011054401564,4750.0,7250.0,850.0,-673.0,153.0,574.0,-233.0,31.0,-255.0,-61.0,-44.875,-39.6875,118.5625,-28.0,-23.3125,93655.25,4759.7,7247.05,870.1,-155.0,433.0,1145.0,245.0,110.0,282.0,33.375,72.75,35.0,128.3125,-21.625,-14.75,93658.0,4734.4,7142.85,807.6,-673.0,153.0,574.0,-233.0,-95.0,-255.0,-61.0,-44.875,-39.6875,118.5625,-30.625,-23.3125,93650.0,LivingRoom ,EATING,0,0,0
4784.159375,7268.165625000001,846.6375,-548.5625,310.0,685.625,8.0,17.625,-31.8125,3.18359375,11.2109375,-6.2265625,132.5859375,-35.609375,-21.58203125,93652.34375,4791.825,7267.3,857.15,-589.0,306.0,674.5,0.5,12.0,-33.5,-6.875,-26.0,-3.875,133.5,-33.09375,-21.90625,93653.0,17.125392635401557,14.536835037815608,21.846635896631792,229.8901096176171,72.53780623463417,131.87007494752805,94.52971314177711,42.12342974323593,105.597486554684,26.883443138369728,83.36224563551436,13.93348923980757,3.6309487826875224,12.06103186229658,3.0826056644163335,1.4020074892809953,4800.0,7250.0,850.0,-949.0,307.0,459.0,94.0,0.0,-212.0,-35.0625,-79.5,-25.9375,133.5,-52.8125,-26.0625,93653.0,4808.05,7294.0,872.7,-147.0,454.0,985.0,179.0,87.0,149.0,47.875,168.3125,12.9375,136.125,-19.4375,-16.625,93653.25,4749.85,7241.1,809.8,-949.0,207.0,459.0,-210.0,-53.0,-212.0,-35.0625,-79.5,-25.9375,124.1875,-52.8125,-26.0625,93650.0,LivingRoom ,EATING,0,0,0
4769.0,7297.721875,772.4250000000001,-709.125,260.75,631.5625,-16.625,-6.875,5.75,2.7265625,3.04296875,-2.52734375,137.0703125,-45.18359375,-22.4609375,93657.78125,4770.125,7293.200000000001,769.425,-716.5,250.5,637.5,-6.0,-5.5,-1.0,9.0,4.0625,-2.34375,137.21875,-44.75,-23.28125,93658.5,20.99291150206041,16.357872403932447,16.053026713572336,89.25833294432515,89.5704564388653,141.1656090082378,72.33613665842728,72.45952893397343,124.00188170615262,28.940257023089828,37.48663455396192,8.49316418601601,1.6771868498073395,2.4313992831203874,2.7907842199819033,3.94215994094608,4750.0,7300.0,750.0,-867.0,72.0,468.0,-193.0,74.0,-178.0,-48.375,-75.3125,-21.1875,135.125,-42.4375,-25.875,93658.5,4795.85,7327.95,804.7,-551.0,385.0,1019.0,108.0,80.0,332.0,35.75,91.125,9.3125,140.1875,-41.9375,-16.625,93661.25,4738.55,7272.9,754.9,-867.0,72.0,468.0,-193.0,-144.0,-178.0,-48.375,-75.3125,-21.1875,135.0,-49.1875,-25.875,93651.5,LivingRoom ,EATING,0,0,0
4657.846875,7277.765625,785.625,-708.75,376.25,584.1875,-11.4375,20.0,-5.8125,2.8984375,-7.6171875,1.0625,142.0625,-45.28125,-31.09375,93663.28125,4647.35,7282.35,788.9,-707.0,372.0,579.0,-9.5,10.5,-0.5,1.5,-4.53125,0.78125,142.0,-45.0625,-31.1875,93663.875,58.34229874556426,25.99055417358401,15.00347737470661,31.034389527318453,26.824118500583264,38.11424711749313,31.457842159520943,39.38189093140822,40.68942327763649,9.945263607826927,13.742040783516593,3.7219786404545636,0.677772085586298,1.7887087987335073,1.2780193008453875,5.413620938583221,4600.0,7300.0,800.0,-791.0,372.0,552.0,-32.0,-7.0,-17.0,-9.0,-1.6875,-4.8125,141.1875,-44.0625,-32.5625,93662.5,4743.4,7312.35,808.45,-664.0,436.0,652.0,30.0,109.0,59.0,26.375,8.0625,7.5,143.5,-42.75,-27.625,93671.5,4579.5,7229.95,761.95,-791.0,328.0,529.0,-74.0,-28.0,-92.0,-9.0,-47.0,-4.8125,141.1875,-48.125,-32.5625,93651.5,LivingRoom ,EATING,0,0,0
4608.549999999999,7279.696875,791.934375,-700.375,322.8125,632.0625,-2.0,-15.8125,34.9375,1.4296875,6.8359375,2.79296875,142.87890625,-44.0,-28.734375,93662.03125,4597.0,7281.125,782.45,-703.5,314.5,656.5,2.5,-8.5,48.0,-7.65625,6.5,5.1875,143.21875,-44.1875,-27.90625,93666.75,28.21478926615147,27.70316750090733,23.56695227608638,95.16082877599025,60.9537734680963,90.51148637972236,69.47133701510765,42.68367174146729,79.69146231979099,27.476390196478988,53.27998898801031,15.368930352574692,2.914713817963095,3.693885713806894,2.9386522562789446,8.860904299223641,4600.0,7300.0,800.0,-716.0,370.0,697.0,-161.0,0.0,-117.0,-25.5625,-85.25,-28.3125,138.25,-51.125,-34.75,93651.25,4659.95,7338.4,832.15,-536.0,419.0,776.0,102.0,49.0,223.0,43.125,103.6875,20.25,147.6875,-38.0625,-25.25,93671.5,4572.75,7231.35,766.8,-875.0,206.0,457.0,-161.0,-97.0,-117.0,-25.5625,-85.25,-28.3125,138.25,-51.125,-34.75,93651.25,LivingRoom ,EATING,0,0,0
4704.121428571429,7307.749999999999,787.9964285714287,-559.9285714285714,342.5,687.4285714285714,15.642857142857142,-14.142857142857142,12.928571428571429,-10.008928571428571,-2.919642857142857,9.53125,140.08482142857142,-37.482142857142854,-27.075892857142858,93663.41071428571,4692.875,7317.025,778.325,-502.0,360.5,707.5,4.5,9.0,-51.0,-19.65625,-11.8125,4.75,139.25,-38.40625,-26.46875,93665.25,28.157262448104362,41.255605679713454,37.370090180649676,176.98694618778842,95.37275050275912,160.70025335565413,107.73372241343444,80.5565803479929,180.5787551546051,30.56805790606187,84.6916154569553,10.72007098274074,5.648594061313442,5.597337352666931,3.2318444970360156,11.150891281580428,4700.0,7350.0,750.0,-492.0,159.0,742.0,-212.0,-171.0,-184.0,-55.6875,-125.25,-3.0,132.625,-45.625,-33.5,93650.5,4764.0,7353.45,840.7,-283.0,481.0,1014.0,196.0,81.0,404.0,36.1875,221.75,29.8125,147.625,-27.75,-21.4375,93677.25,4667.8,7245.9,746.85,-911.0,159.0,429.0,-212.0,-171.0,-184.0,-55.6875,-125.25,-3.0,132.625,-45.625,-33.5,93650.5,LivingRoom ,EATING,0,0,0
4762.246666666667,7190.493333333333,714.5233333333333,-603.0,332.4,696.6,-6.066666666666666,-26.8,5.933333333333334,-2.175,2.1166666666666667,-0.19583333333333333,129.62916666666666,-36.96666666666667,-27.0625,93670.28333333334,4765.05,7173.8,710.25,-611.0,356.0,651.0,-7.0,-2.0,-73.0,19.4375,5.875,-0.625,129.1875,-36.4375,-26.6875,93673.0,9.209767072179863,29.468329650337367,16.751714908657934,115.80587204455567,155.79831284617393,223.7462848853585,108.07964435456624,124.85374300699655,207.59592160412657,41.84880710665479,39.09632012125706,13.487425250245222,2.2422319609412997,2.045910918905131,3.5062125984763512,5.084874863843986,4750.0,7150.0,700.0,-791.0,47.0,376.0,-212.0,-290.0,0.0,-68.375,-45.5625,-6.25,131.1875,-40.875,-34.125,93664.5,4769.9,7240.0,751.7,-427.0,573.0,1121.0,142.0,116.0,363.0,44.4375,54.25,24.8125,134.3125,-34.5,-21.9375,93677.25,4741.6,7160.45,693.1,-791.0,47.0,376.0,-212.0,-290.0,-239.0,-68.375,-45.5625,-30.6875,126.1875,-40.875,-34.125,93664.5,LivingRoom ,EATING,0,0,0
4749.828125,7161.75,720.2125,-531.5625,302.75,721.3125,35.5,-25.8125,0.8125,-5.1875,5.4609375,-3.24609375,126.203125,-35.5859375,-24.73046875,93664.15625,4746.3,7164.3,721.7,-562.0,315.0,646.0,14.0,-14.0,-97.5,14.8125,38.5625,-2.96875,126.46875,-35.8125,-25.0625,93668.5,8.58943088432908,7.685787749693243,9.845311913122236,242.21532259541303,128.74030707850073,307.7896941636177,212.10594836857672,101.63215944440684,265.04168697269745,42.37235119548281,85.08474597362229,14.560120849107847,2.322500897021714,5.388736082097545,4.105872239726698,9.46126973508313,4750.0,7150.0,700.0,-936.0,261.0,408.0,-265.0,-290.0,-257.0,-77.1875,-147.0625,-24.625,126.1875,-36.5625,-20.0625,93652.75,4765.2,7172.6,732.05,92.0,494.0,1487.0,682.0,110.0,755.0,43.125,132.625,29.3125,129.6875,-27.25,-19.5625,93674.75,4738.7,7146.9,705.5,-936.0,-10.0,408.0,-265.0,-290.0,-257.0,-77.1875,-147.0625,-24.625,121.6875,-43.1875,-31.9375,93652.75,LivingRoom ,EATING,1,0,2
4762.08125,7183.028125,739.0676136363636,-576.0,225.75,720.4375,16.0,-39.9375,17.5625,2.15625,33.1015625,-6.51171875,124.43359375,-38.14453125,-21.9296875,93647.40625,4758.275,7175.125,741.4954545454545,-554.0,235.0,723.0,-37.5,-44.0,-21.5,-6.4375,24.1875,-1.75,124.15625,-35.5,-19.96875,93648.75,9.925688473182461,19.114584037238807,6.478412313362608,236.03530809323138,83.0658373420345,255.58455058942823,114.45756127636712,59.61707669228116,154.00085227036894,34.84789866931242,99.99789027722451,17.87125862287335,1.9072871154141948,12.355133859343315,6.851584176609572,9.968230785851619,4750.0,7150.0,750.0,-990.0,50.0,190.0,-54.0,-52.0,-197.0,-55.625,-110.25,9.5625,121.875,-70.1875,-43.9375,93637.0,4776.9,7219.6,747.1954545454545,-199.0,370.0,1115.0,275.0,47.0,410.0,62.0,206.5,12.4375,128.5625,-24.6875,-15.5,93663.75,4747.45,7160.9,728.4454545454545,-990.0,50.0,190.0,-138.0,-155.0,-197.0,-55.625,-110.25,-45.25,121.875,-70.1875,-43.9375,93637.0,LivingRoom ,EATING,0,0,0
4729.284375,7213.659374999999,682.7579545454545,-759.875,305.375,213.1875,19.3125,-14.8125,-25.625,-22.1171875,-17.56640625,2.08203125,118.765625,-55.76953125,-69.8046875,93671.71875,4728.925,7215.0,682.1500000000001,-903.5,324.5,15.0,7.0,12.0,2.5,-25.78125,-1.375,10.03125,121.0,-62.71875,-70.875,93669.5,9.84702524877434,11.27331981198668,18.650671041628243,303.15405874461476,94.64028388235812,461.10739439599826,150.01409655984557,129.48370232066532,122.50272105821432,24.449031539698392,150.7253719323347,26.78532246117187,6.266457498725523,15.63987156859965,44.201249481538035,8.154178376758752,4750.0,7200.0,700.0,-1050.0,446.0,-214.0,-170.0,12.0,55.0,-70.375,-247.125,-62.25,107.0625,-74.375,-125.1875,93669.5,4746.45,7226.85,709.7954545454545,-126.0,446.0,999.0,369.0,121.0,144.0,24.375,248.125,40.5,128.0,-29.1875,-15.4375,93680.75,4711.8,7190.3,646.3,-1050.0,150.0,-214.0,-170.0,-278.0,-310.0,-70.375,-247.125,-62.25,107.0625,-74.375,-125.1875,93654.75,LivingRoom ,EATING,1,0,2
4664.290625,7231.762500000001,690.6968750000001,-939.625,348.75,-20.875,-64.625,-11.3125,4.4375,-14.3203125,53.4453125,32.37109375,103.71875,-63.3359375,-84.8203125,93653.9375,4660.4,7227.9,693.0,-950.5,341.0,-120.0,-52.0,5.0,14.5,-17.5,44.8125,39.28125,109.75,-65.40625,-105.21875,93654.75,21.485880780565303,9.472108177873107,13.820220316020034,124.26899586515268,171.37891741207065,205.4224508989544,77.32690346832725,60.69235948618244,48.08599068335808,25.119069314549986,45.78154578971568,25.01748834929861,21.49546948390133,11.366385817950224,36.31200784950482,1.8984642916490861,4650.0,7250.0,700.0,-1185.0,38.0,-218.0,-67.0,-117.0,-137.0,-48.125,-4.875,-36.1875,66.8125,-77.75,-112.5625,93655.5,4707.8,7252.45,712.3,-729.0,598.0,395.0,28.0,58.0,86.0,29.375,179.9375,59.75,126.0,-44.875,-16.25,93655.5,4631.65,7223.0,666.95,-1185.0,38.0,-218.0,-325.0,-117.0,-137.0,-48.125,-4.875,-36.1875,66.8125,-77.75,-112.5625,93651.25,LivingRoom ,EATING,0,0,0
4645.5,7144.334375,655.009375,-762.0,633.1875,-178.4375,-74.25,-27.9375,7.25,12.69140625,-21.80078125,-1.6484375,68.4765625,-45.09375,-105.87890625,93650.96875,4647.775,7128.5,657.6,-724.5,649.0,-150.5,-49.5,-16.0,4.5,10.90625,-0.875,-2.09375,64.65625,-44.0625,-104.6875,93648.0,22.568259421881212,49.22917400197433,11.78639355005027,92.93868946784218,65.14928370033446,153.0929864494125,88.86431604793157,56.08382862584663,132.03459142714584,21.0566877335276,46.97600905177335,9.55174708604836,9.915052608492134,3.022571339108475,5.766121816896662,8.73731222974205,4650.0,7100.0,650.0,-800.0,437.0,-436.0,-8.0,9.0,-165.0,-16.3125,-114.6875,-17.25,59.875,-45.3125,-116.125,93645.25,4671.95,7227.05,671.9,-669.0,699.0,133.0,55.0,33.0,401.0,60.9375,24.125,12.875,89.5,-42.25,-95.125,93668.25,4611.8,7089.55,635.4,-968.0,437.0,-436.0,-276.0,-203.0,-165.0,-16.3125,-114.6875,-17.25,59.875,-50.9375,-116.125,93645.25,LivingRoom ,EATING,0,0,0
4719.534374999999,7140.49375,712.5343750000001,-677.125,533.875,369.3125,-0.8125,-27.4375,-0.4375,-15.0703125,-47.00390625,-18.7578125,104.53515625,-43.9609375,-57.640625,93661.34375,4726.825000000001,7133.950000000001,704.45,-705.0,594.0,318.0,-9.0,-12.5,-3.0,-8.375,-32.40625,-3.875,101.875,-44.96875,-61.28125,93660.75,24.319373064493323,16.20248823483605,27.829574908419513,128.29230946033618,97.4445996451317,196.1525660466023,101.78946818474559,69.44731216301079,44.086231788772025,13.417104191882588,40.7228467096865,32.32148791019941,8.104845796844318,4.428004806061077,17.824440442362654,3.541274488090411,4750.0,7150.0,700.0,-807.0,596.0,49.0,-148.0,-159.0,-4.0,-8.125,-114.9375,-85.25,93.125,-50.6875,-86.8125,93658.75,4747.95,7170.75,767.85,-384.0,633.0,736.0,233.0,89.0,111.0,-3.3125,23.8125,7.9375,121.5625,-35.5,-25.1875,93668.25,4669.7,7124.45,680.45,-807.0,367.0,49.0,-148.0,-159.0,-89.0,-40.375,-114.9375,-85.25,93.125,-50.6875,-86.8125,93658.75,LivingRoom ,EATING,0,0,0
4723.66,7234.186666666666,746.6233333333334,-897.4666666666667,189.66666666666666,314.06666666666666,-14.266666666666667,5.466666666666667,17.0,-4.758333333333334,24.8625,-5.433333333333334,124.92083333333333,-67.53333333333333,-38.520833333333336,93661.98333333334,4727.55,7226.2,742.15,-915.0,206.0,203.0,-25.0,10.0,-1.0,-4.8125,29.125,0.5625,124.5625,-71.875,-31.875,93660.25,15.297037528320901,56.71356434709755,25.288159755299002,146.9226553893805,68.32555124095929,230.50177150440007,69.04911985232653,49.1555354631263,75.98684096605149,21.631654976534033,77.34436128907062,20.68986643061445,0.9874962326630968,11.692532975405815,19.81048134526146,2.557319094751563,4750.0,7150.0,750.0,-1086.0,66.0,44.0,-136.0,10.0,85.0,-39.875,-104.125,-32.875,124.25,-78.9375,-16.6875,93665.0,4743.35,7338.15,783.5,-636.0,322.0,743.0,95.0,74.0,153.0,33.5,132.8125,26.9375,126.75,-42.8125,-16.6875,93665.0,4701.7,7165.7,716.2,-1086.0,66.0,44.0,-136.0,-89.0,-112.0,-39.875,-104.125,-32.875,123.4375,-78.9375,-71.0,93659.75,LivingRoom ,EATING,0,0,0
4777.303125,7389.587500000001,694.734375,-677.375,81.1875,625.8125,4.1875,-26.3125,32.5,26.94921875,-75.125,-26.51171875,136.3359375,-47.8828125,-10.26953125,93634.625,4771.549999999999,7387.8,697.275,-816.5,61.0,547.5,-11.5,-31.0,30.5,15.78125,-89.5,-17.96875,134.25,-58.09375,-7.875,93629.0,35.64806899281742,19.22685188306523,25.200388348528808,368.61142593974665,98.44945826835887,254.5776158659673,110.38128993025343,42.257494404346,90.84051959340611,34.00980418348448,88.66456568626124,27.4884655616186,9.947279648016,21.85116409704145,7.993966434065028,13.82991925741675,4750.0,7400.0,700.0,-981.0,-47.0,312.0,-119.0,-31.0,-170.0,-3.125,-212.9375,-100.6875,124.0,-68.9375,-27.8125,93625.0,4825.75,7417.9,751.4,180.0,305.0,1109.0,166.0,50.0,191.0,81.875,71.8125,8.9375,158.5,0.0,-2.5,93660.25,4710.65,7355.85,663.65,-981.0,-47.0,312.0,-133.0,-104.0,-170.0,-15.75,-212.9375,-100.6875,124.0,-68.9375,-27.8125,93625.0,LivingRoom ,EATING,0,0,0
4795.134375000001,7353.450000000001,821.26875,-30.875,274.5625,800.75,-107.375,-40.625,-89.375,19.32421875,-3.72265625,16.765625,180.96875,7.71484375,-18.015625,93656.34375,4791.0,7349.924999999999,787.625,23.5,328.0,763.0,-111.5,-27.0,-135.5,20.875,-16.28125,17.6875,186.6875,5.03125,-17.65625,93656.5,25.874657606430244,17.567640706708524,71.03853854305656,321.173655000946,152.57783532785268,254.39352717132303,138.2687600291548,136.74690733858176,213.36849970571257,68.3231873263557,55.764506561587105,93.6582787429031,14.120390103204183,5.916078407522869,9.16664299239367,1.0077822185373186,4750.0,7350.0,750.0,-1006.0,-137.0,487.0,-14.0,-301.0,-315.0,-95.875,-94.0625,-144.4375,193.75,1.3125,-31.25,93656.5,4836.8,7392.5,955.8,351.0,439.0,1409.0,89.0,182.0,434.0,125.3125,94.1875,125.4375,194.3125,18.0625,-5.9375,93657.25,4759.3,7335.45,751.9,-1006.0,-137.0,487.0,-323.0,-301.0,-315.0,-95.875,-94.0625,-144.4375,151.4375,1.3125,-31.25,93654.75,LivingRoom ,EATING,1,0,1
4719.975,7335.1625,1047.94375,-201.1875,430.625,768.0625,-41.875,-61.5,-37.3125,11.5703125,20.12109375,18.390625,131.04296875,-8.21484375,-32.1484375,93655.0,4727.275,7335.525,1062.3,-68.5,436.0,829.5,-28.5,-60.0,-3.0,3.875,31.71875,20.59375,130.78125,-4.5,-29.75,93658.75,21.820556057686993,10.788257505269279,56.94540331171018,465.0889834214524,103.63968030312199,213.2977476830608,321.5344201377721,81.36665983886357,190.40228246180945,28.145620912719263,119.76325489609611,51.5542215576636,5.352409832554398,13.045692311664606,4.325546388897014,7.9796616469622315,4750.0,7350.0,1100.0,-1287.0,256.0,326.0,-790.0,-216.0,-422.0,-26.9375,-241.5,-103.8125,123.9375,-29.5625,-28.375,93658.75,4747.65,7354.3,1109.0,383.0,611.0,998.0,470.0,87.0,347.0,94.75,184.4375,90.9375,144.5625,13.25,-27.8125,93665.25,4684.7,7306.1,961.05,-1287.0,256.0,326.0,-790.0,-216.0,-422.0,-26.9375,-241.5,-103.8125,123.9375,-29.5625,-40.0625,93645.5,LivingRoom ,EATING,2,0,0
4651.331249999999,7267.5625,1034.15,-474.8125,409.5625,617.5625,-40.25,-36.8125,-31.875,-3.578125,21.53125,-59.53515625,140.734375,-28.3203125,-31.65234375,93651.3125,4649.924999999999,7265.875,1053.475,-379.0,497.5,642.5,-35.5,-18.5,-16.5,10.875,25.40625,-53.96875,130.90625,-28.46875,-38.15625,93657.25,14.12045649639796,14.94093370576271,53.253732263570015,313.0380634470298,236.98775460629466,161.60444249256682,146.92106724360534,81.3291409438626,91.79533394096528,40.57207128986638,51.3197848056673,66.17380039505029,21.761114258006184,16.81331124127051,18.563390393207406,11.455893679674231,4650.0,7250.0,1100.0,-1014.0,-76.0,228.0,80.0,-198.0,-198.0,-63.9375,-56.9375,-70.9375,117.4375,-46.75,-49.625,93637.5,4678.45,7292.0,1095.6,-73.0,623.0,832.0,240.0,91.0,105.0,50.6875,117.875,29.5,173.25,-2.9375,6.0625,93665.25,4623.9,7245.85,945.5,-1014.0,-76.0,228.0,-339.0,-198.0,-198.0,-63.9375,-56.9375,-168.125,117.4375,-47.9375,-49.625,93637.5,LivingRoom ,EATING,1,0,0
4659.16875,7343.65,884.9125,-557.5625,-150.75,824.3125,-22.3125,-30.125,23.4375,-2.08203125,-5.5703125,7.3671875,170.18359375,-33.33984375,9.109375,93658.84375,4654.85,7351.6,877.575,-623.5,-157.0,806.5,-15.5,-25.0,23.0,-5.1875,-16.09375,3.875,172.0,-32.78125,8.5625,93656.75,15.544847753087396,33.78284574553572,22.911732802212928,206.32917672172945,77.28863650843721,108.82078156308197,119.7473555727502,75.02610656742536,103.69247401169801,16.785312881076273,66.96573235540573,18.99947744621327,4.4622530714828725,7.75285460700068,2.214006078732998,8.756842562628762,4650.0,7350.0,850.0,-868.0,-140.0,689.0,-287.0,-30.0,72.0,-27.5,-85.8125,-13.5,173.875,-45.5625,6.125,93669.0,4704.95,7388.5,930.3,-180.0,18.0,1104.0,190.0,116.0,322.0,43.8125,185.875,46.125,175.125,-24.5,12.75,93669.0,4643.45,7272.7,856.85,-868.0,-323.0,689.0,-287.0,-211.0,-186.0,-27.5,-85.8125,-13.5,164.5625,-45.5625,6.125,93648.75,LivingRoom ,EATING,0,0,0
4732.959375,7351.0,877.953125,-677.4375,103.5625,650.0,1.3125,-13.625,-29.9375,-7.50390625,-6.06640625,16.78515625,150.04296875,-44.421875,-10.53125,93656.25,4733.275,7338.325,880.575,-633.0,112.0,700.0,-28.0,-12.5,-17.5,-0.40625,1.125,1.9375,146.5,-39.4375,-8.0625,93656.75,26.445391651161763,25.628031527996836,21.49142828160411,283.9800389111883,78.3674836906226,259.2059670095064,238.039413753269,48.23259617036318,172.71497474162453,46.099730367692594,84.45155930556064,37.91825753587962,7.654305662977647,8.983651238963661,7.459089812660345,7.429670248402684,4750.0,7350.0,900.0,-1270.0,64.0,205.0,115.0,-63.0,-331.0,-107.1875,-227.0625,-49.3125,146.3125,-60.25,-8.0,93648.75,4765.95,7392.9,906.95,-23.0,234.0,1220.0,578.0,102.0,457.0,73.75,117.9375,91.4375,164.125,-34.6875,2.9375,93664.75,4700.15,7320.95,839.7,-1270.0,-59.0,205.0,-379.0,-99.0,-331.0,-107.1875,-227.0625,-49.3125,141.8125,-60.25,-26.25,93648.75,LivingRoom ,EATING,2,0,1
4759.971874999999,7280.831249999999,768.73125,-769.3125,253.3125,491.875,-17.25,19.0,-34.0,11.0,9.6875,26.87890625,140.72265625,-52.171875,-24.27734375,93658.453125,4763.7,7278.15,767.075,-888.5,227.0,441.0,-40.5,16.5,-64.0,9.03125,7.09375,15.25,141.6875,-55.90625,-24.5625,93656.75,11.407526298457501,16.113398927600578,30.566964057077488,245.49126766547116,127.81273736734275,209.57508598749678,130.35004155478177,57.90567041893796,118.24099683837807,16.421356140708962,127.45177396764629,27.30037840044148,4.7681106905452255,14.839988558508617,7.978616236998222,3.4073679358120397,4750.0,7300.0,750.0,-1126.0,38.0,159.0,82.0,-93.0,-254.0,-10.9375,-216.9375,-0.9375,141.25,-71.4375,-38.0625,93655.25,4775.45,7318.7,823.6,-371.0,453.0,812.0,290.0,150.0,141.0,45.625,221.0625,81.6875,146.875,-27.5625,-7.625,93666.0,4736.05,7254.55,729.95,-1126.0,38.0,159.0,-195.0,-93.0,-254.0,-10.9375,-216.9375,-0.9375,126.9375,-71.4375,-38.0625,93655.25,LivingRoom ,EATING,0,0,0
4713.60625,7216.04375,847.753125,-458.625,645.125,517.75,-37.6875,-41.3125,13.4375,17.45703125,-7.953125,13.72265625,117.546875,-26.24609375,-53.55859375,93660.15625,4714.325,7205.95,843.45,-423.0,662.0,489.0,-29.0,-24.5,17.5,11.46875,-12.03125,6.28125,116.625,-23.8125,-57.28125,93659.25,18.861591263729576,29.631030328581762,66.54067795654522,102.71505894139054,118.18678719157514,104.01634486944828,65.40103847289684,74.04027620153776,58.72304346109229,18.07609377093472,21.83740221309913,18.513339345562656,2.0674183780744526,4.607538475942623,6.262756512960167,5.349357438048051,4700.0,7200.0,750.0,-378.0,398.0,368.0,-15.0,-78.0,-79.0,-2.9375,-46.375,-3.3125,116.5625,-23.8125,-59.0625,93659.25,4735.45,7260.35,940.05,-343.0,777.0,767.0,48.0,145.0,168.0,55.25,40.75,43.0,123.375,-21.6875,-40.0625,93666.0,4673.6,7183.3,762.2,-703.0,398.0,368.0,-164.0,-145.0,-79.0,-2.9375,-46.375,-5.5625,115.4375,-34.3125,-59.0625,93652.75,LivingRoom ,EATING,0,0,0
4655.4,7228.346875,983.4,-507.625,713.5625,428.0625,-29.625,-17.5625,-11.125,2.1015625,7.38671875,-10.7109375,126.6953125,-29.2890625,-58.87890625,93656.5625,4653.75,7222.6,990.5,-505.0,717.5,447.5,-22.5,-16.0,-7.5,2.65625,9.28125,-9.65625,127.625,-29.96875,-59.0625,93657.75,24.908244953562463,26.185896132269377,30.33212818118768,112.6362138331481,39.42582698350579,48.93324534506168,65.94631655116657,14.165539170818738,27.916243777891516,5.1222490075974765,25.527856707897715,20.028610720562554,4.028406619971888,3.691620226382087,1.9471491914998023,3.966001344763598,4650.0,7200.0,1000.0,-699.0,769.0,463.0,-155.0,-16.0,-55.0,-7.3125,-35.125,-43.5,120.1875,-29.6875,-57.125,93657.75,4689.7,7270.7,1017.1,-315.0,769.0,484.0,56.0,18.0,31.0,9.5,45.0,18.9375,131.8125,-21.875,-56.0,93659.5,4622.5,7188.0,937.0,-699.0,650.0,326.0,-155.0,-39.0,-55.0,-7.3125,-35.125,-43.5,120.1875,-33.0625,-61.875,93648.0,LivingRoom ,EATING,0,0,0
4714.06875,7151.003124999999,915.3406249999999,-398.1875,656.4375,557.125,-54.625,-32.8125,-5.125,-12.1484375,-24.015625,23.6953125,118.08984375,-21.3359375,-50.765625,93641.625,4710.25,7133.9,928.375,-407.0,659.5,634.0,-55.5,-35.5,-15.0,-13.0625,-26.9375,28.96875,118.5625,-22.875,-48.46875,93648.0,23.977113219345956,36.912113949894476,33.7074631634697,239.35753417569012,33.67683427323101,134.73078094234197,54.92039693957064,29.244301439197802,45.79792571721999,12.897691876036063,13.943459114700818,22.699874666963105,7.707949385145074,12.60201858417267,4.945563036702697,10.339245620450265,4700.0,7150.0,950.0,-639.0,614.0,646.0,-158.0,-33.0,-18.0,-33.375,-36.875,-18.875,107.5,-36.3125,-46.6875,93628.75,4753.15,7221.0,962.8,-64.0,724.0,684.0,34.0,35.0,95.0,5.75,8.5625,47.5625,127.125,-2.125,-46.6875,93650.25,4682.2,7104.55,864.75,-716.0,614.0,290.0,-158.0,-87.0,-81.0,-33.375,-41.8125,-18.875,107.5,-36.3125,-61.0,93628.75,LivingRoom ,EATING,0,0,0
4748.50625,7213.775,872.365625,164.5,692.0,591.8125,-30.1875,-36.5,-24.0,2.12890625,-23.83203125,6.8828125,108.6484375,11.578125,-49.7890625,93658.71875,4743.75,7223.55,885.05,174.5,691.5,596.0,-24.5,-39.5,-27.0,1.9375,-21.09375,6.53125,108.65625,12.21875,-49.59375,93662.25,51.39041050299832,58.564565509643614,35.587960130499184,90.0318462175098,11.349008767288886,32.69499197124844,27.742191093471092,12.285492799775406,10.893423092245461,2.170285689479229,12.029038622528887,4.529123064034214,0.7934874893993814,5.694409722116361,1.3400627706069095,7.920897992020854,4750.0,7250.0,900.0,11.0,680.0,547.0,-81.0,-54.0,-34.0,-2.25,-47.4375,1.625,108.4375,0.3125,-51.6875,93662.25,4840.35,7284.4,910.25,293.0,708.0,646.0,23.0,-9.0,-8.0,5.375,-8.8125,19.1875,109.5625,18.5625,-47.5,93664.0,4677.95,7103.9,799.85,11.0,673.0,547.0,-81.0,-54.0,-42.0,-2.25,-47.4375,1.625,107.25,0.3125,-51.6875,93645.5,LivingRoom ,EATING,0,0,0
4903.965625000001,7271.496875,680.796875,335.0625,684.625,522.3125,-32.8125,-34.625,-28.6875,-0.17578125,-5.7734375,2.56640625,109.54296875,22.03125,-52.42578125,93652.0,4910.025,7266.525,668.6,342.0,685.5,520.5,-33.5,-37.5,-24.0,-0.3125,-5.1875,2.46875,109.65625,22.375,-52.5,93652.625,17.37271537737656,14.752304551605857,61.75927317348115,28.33482839192784,12.510662119435032,14.216041408681017,13.37270229484926,9.905385740427612,11.898004034290794,1.1968314831079325,4.442976374290099,1.1680353764441382,0.6494062793236604,1.5537253618320066,0.26537978877764345,8.486754385511578,4900.0,7250.0,650.0,341.0,687.0,519.0,-38.0,-38.0,-23.0,-0.75,-14.5,2.375,109.875,19.1875,-52.6875,93660.25,4922.3,7296.9,776.45,378.0,714.0,549.0,-14.0,-14.0,-12.0,1.9375,0.375,4.75,110.375,23.9375,-51.8125,93660.25,4858.45,7247.35,606.65,278.0,667.0,495.0,-70.0,-48.0,-61.0,-3.1875,-14.5,0.625,108.375,19.1875,-52.75,93643.25,LivingRoom ,EATING,0,0,0
4927.665625,7246.81875,661.55625,384.75,693.4375,528.4375,-13.8125,-17.9375,-12.125,0.14453125,0.01953125,0.58984375,106.75,24.2109375,-52.70703125,93655.765625,4915.15,7242.675,649.125,385.0,695.0,527.5,-12.5,-17.0,-12.0,0.0625,0.3125,0.59375,106.71875,24.1875,-52.71875,93656.0,26.142033322792653,7.576539997474675,29.382505424146533,5.471136384091822,5.489004159833245,12.033114033089412,5.479887468430959,4.753507476940931,10.025800051201234,0.9983629177934245,3.0335552874954606,0.6781442009570433,0.8818186699467565,0.24777657106083834,0.236861807020465,3.3732634421284087,4900.0,7250.0,650.0,382.0,686.0,510.0,-15.0,-19.0,-14.0,-0.5625,-5.9375,0.375,106.0,24.125,-53.0,93656.0,4972.55,7258.95,722.45,393.0,699.0,552.0,-7.0,-12.0,6.0,2.0625,5.0,1.9375,108.3125,24.5625,-52.3125,93659.75,4900.4,7237.0,622.55,375.0,679.0,510.0,-26.0,-28.0,-33.0,-1.0625,-5.9375,-0.5625,105.625,23.8125,-53.0,93651.5,LivingRoom ,EATING,0,0,0
5002.3,7292.825,746.428125,401.1875,687.625,521.9375,-13.375,-20.875,-10.4375,-0.125,-3.6484375,0.1328125,105.640625,25.19140625,-53.078125,93661.578125,5005.075,7293.95,746.675,400.5,687.0,519.0,-8.0,-20.0,-13.5,-0.0625,-3.09375,0.0625,105.90625,25.28125,-53.09375,93659.25,9.163769239055869,24.660994843409338,5.432739295235881,16.05498364994496,6.810531061035793,16.022770255691327,10.984079387914129,8.229013711658686,9.465507558146754,0.6459005341381907,2.5008201779616224,1.4710531587380973,0.5320459723244474,0.6168082959545318,0.43928208477013947,5.802814511079947,5000.0,7300.0,750.0,400.0,688.0,517.0,-7.0,-25.0,-18.0,0.25,-3.25,-0.1875,104.75,24.625,-53.125,93657.5,5012.85,7334.65,752.35,426.0,702.0,554.0,-2.0,-6.0,12.0,1.125,0.0625,2.25,106.1875,26.3125,-52.5,93668.5,4979.1,7260.65,730.4,363.0,678.0,498.0,-33.0,-37.0,-23.0,-1.4375,-9.375,-2.9375,104.75,24.25,-53.8125,93651.5,LivingRoom ,EATING,0,0,0
4986.365625,7366.896875,755.0,421.5,684.6875,509.5625,-12.0,-21.6875,-11.0625,-0.359375,-0.1796875,0.05078125,105.703125,26.28515625,-53.5078125,93654.1875,4985.175,7367.799999999999,755.275,423.5,685.0,510.0,-10.0,-21.5,-11.5,-0.28125,-0.34375,0.125,105.78125,26.3125,-53.5,93654.5,5.694404234275322,11.102739432980702,8.68412344453947,8.205689083394114,5.338148867663146,7.737086014773262,6.957010852370434,4.714781719938546,6.747530412429919,0.6744982703214788,1.4568221336754419,0.6971738895653412,0.2505202919259569,0.07895393567348834,0.15954851665454828,3.773261188945181,5000.0,7350.0,750.0,414.0,678.0,510.0,-20.0,-26.0,-11.0,-0.25,-1.25,0.125,105.8125,26.3125,-53.5,93650.25,4999.05,7384.3,770.45,442.0,692.0,531.0,5.0,-15.0,6.0,0.9375,2.6875,1.0,106.0,26.375,-53.25,93660.75,4977.75,7341.5,743.65,407.0,676.0,497.0,-21.0,-32.0,-21.0,-1.375,-2.625,-1.4375,105.1875,26.125,-53.75,93650.25,LivingRoom ,EATING,0,0,0
4982.366666666667,7368.143333333334,773.37,292.46666666666664,651.3333333333334,580.1333333333333,0.7333333333333333,-48.733333333333334,-11.333333333333334,-1.9166666666666667,29.7625,-20.5,104.21666666666667,17.741666666666667,-49.80833333333333,93646.11666666667,4987.75,7368.0,767.9,382.0,655.0,541.0,-15.0,-43.0,-16.0,-1.125,36.5,-3.125,105.0625,23.6875,-51.375,93639.5,11.532185808588444,9.302857983795436,18.437953868505645,153.5642567539105,23.792756000414034,81.59470104176641,31.74781582288472,21.22823815671228,19.0663003627817,6.440995352502003,25.409274881428626,28.92501080380092,2.057063542204437,10.61390877687431,3.7082848445198002,10.734983975413327,5000.0,7350.0,750.0,416.0,645.0,501.0,-18.0,-50.0,-21.0,-11.0625,69.75,-90.375,105.125,26.4375,-53.375,93639.5,4993.15,7383.95,818.55,424.0,682.0,716.0,64.0,-22.0,32.0,15.0,69.75,-0.1875,109.0625,26.5,-45.0,93660.75,4953.0,7354.6,753.45,-32.0,609.0,501.0,-25.0,-85.0,-45.0,-11.0625,-0.75,-90.375,101.125,-3.8125,-53.375,93637.75,LivingRoom ,EATING,0,0,0
4838.096875,7388.15625,853.953125,-652.875,531.6875,508.125,-3.25,63.1875,-8.1875,6.01953125,15.0546875,-57.9765625,143.21875,-41.55078125,-41.4296875,93647.65625,4827.75,7382.325,844.3499999999999,-727.5,548.5,570.5,-21.0,70.0,1.0,5.9375,10.90625,-59.34375,148.625,-46.65625,-41.375,93650.0,75.07181998759583,21.53937383026724,21.330787364355146,257.47799258706885,77.65369169159528,236.8478766353346,201.4793620531228,107.52067630615673,187.60178348477038,20.740644461595007,101.53547941842382,36.65026059337777,15.321978358989199,15.289552852594861,6.688721656328161,16.47975399290495,4750.0,7400.0,850.0,-1260.0,382.0,493.0,-371.0,-126.0,-559.0,-47.375,-285.1875,-101.375,113.9375,-65.0625,-52.5625,93630.0,4940.35,7427.05,897.55,-153.0,628.0,747.0,554.0,276.0,406.0,39.9375,240.0,-7.0,165.5,-9.4375,-30.0,93666.75,4727.55,7362.55,832.9,-1260.0,382.0,-308.0,-371.0,-126.0,-559.0,-47.375,-285.1875,-101.375,113.9375,-65.0625,-52.5625,93630.0,LivingRoom ,EATING,1,0,1
4645.046875,7384.396875,896.8531250000001,-529.5,128.0625,730.4375,7.375,-36.875,6.0,-10.44921875,0.6484375,34.68359375,157.015625,-33.7578125,-14.65625,93650.8125,4630.7,7389.424999999999,883.9,-537.0,112.0,747.5,64.0,-54.5,3.5,-26.34375,36.09375,11.375,166.03125,-37.5,-8.0,93645.5,30.853338386361624,34.123645119623475,29.479911062450654,240.73083170490094,251.08045689247368,292.18167151049477,142.36098482379222,70.21194105468575,142.02159460213554,50.83889596656244,113.45231853395137,49.71359885189656,14.924227017950823,12.843810827106571,19.492386334156215,9.503288904374106,4650.0,7400.0,900.0,-966.0,-191.0,366.0,-214.0,-79.0,-222.0,-83.5625,-241.0,-34.0625,129.75,-50.9375,-45.4375,93645.5,4707.8,7417.7,941.95,-148.0,470.0,1195.0,186.0,107.0,324.0,99.0625,152.4375,119.0625,169.125,-13.9375,6.3125,93666.75,4604.85,7303.75,865.6,-966.0,-191.0,366.0,-214.0,-152.0,-222.0,-83.5625,-241.0,-34.0625,129.75,-50.9375,-45.4375,93645.5,LivingRoom ,EATING,0,0,0
4629.38125,7262.990625,941.2,-565.875,482.375,603.25,70.5625,34.5625,8.625,5.29296875,-14.9140625,0.15234375,132.265625,-39.49609375,-38.13671875,93659.65625,4621.875,7262.65,944.4000000000001,-658.5,481.5,614.0,4.0,21.0,-1.0,3.15625,-2.75,-3.1875,132.0625,-40.1875,-37.625,93660.75,21.234271630236467,17.40398631300696,12.834744511156686,336.5641840719241,138.21667772016517,276.40417266507876,238.47067429770058,110.37751507138279,180.66797355000878,16.234844194374794,102.47316436054125,19.195742919302663,2.1009050629034465,8.961621550104182,5.164442670701102,5.569167352486366,4600.0,7250.0,950.0,-1069.0,406.0,614.0,-283.0,-183.0,-267.0,-22.625,-202.9375,-46.9375,132.625,-52.9375,-47.875,93653.5,4679.05,7296.15,955.7,18.0,857.0,1089.0,506.0,326.0,402.0,46.9375,155.4375,35.125,136.0,-25.375,-30.25,93667.25,4607.25,7233.65,904.1,-1069.0,224.0,182.0,-283.0,-183.0,-267.0,-22.625,-202.9375,-46.9375,129.0,-52.9375,-47.875,93653.5,LivingRoom ,EATING,3,0,0
4700.525,7291.665625,857.709375,-634.25,463.875,442.25,28.4375,-6.0,-55.0,3.6953125,17.578125,-7.63671875,134.3984375,-44.296875,-44.62890625,93654.9375,4698.85,7296.625,865.675,-493.5,483.0,489.5,147.0,-13.0,-39.5,17.03125,10.46875,-12.90625,134.6875,-42.875,-40.59375,93659.5,17.113104140784454,15.502502150190745,31.736751665064894,415.178435535052,153.5143315785207,576.7709539612179,274.95380672639055,131.2239815480895,428.52957890908766,35.76372751446871,189.08656596142237,26.70961923662756,4.832500377220196,9.287578510211008,11.238778402208949,10.59854549769291,4700.0,7300.0,850.0,-1455.0,166.0,-353.0,-618.0,-221.0,-746.0,-64.375,-316.75,-64.5,128.0,-42.875,-62.5,93642.25,4731.55,7311.55,903.05,-119.0,720.0,1139.0,296.0,227.0,558.0,62.4375,329.625,46.25,143.3125,-31.4375,-31.0625,93667.25,4676.2,7264.35,800.75,-1455.0,166.0,-353.0,-618.0,-221.0,-746.0,-64.375,-316.75,-64.5,128.0,-58.5,-62.5,93642.25,LivingRoom ,EATING,3,0,4
4721.015625,7318.50625,821.1968750000001,-728.875,437.5625,468.1875,28.125,19.8125,-26.8125,28.578125,-14.1796875,-36.8828125,161.60546875,-49.4609375,-43.46484375,93655.75,4719.375,7320.5,822.0,-758.0,422.0,386.5,-16.0,13.5,-44.5,24.3125,-4.25,-30.375,156.28125,-47.90625,-42.78125,93655.75,10.841905102425537,27.72450104750901,11.682286716078593,223.94757571062624,126.99709642350096,366.4462159262484,162.92610799582326,98.40136770729697,259.89747177172256,34.21854927642803,73.62862142692315,26.28247866727629,22.05815843436675,6.459806619590094,4.906626511561516,9.615092303249096,4700.0,7300.0,800.0,-920.0,243.0,-278.0,-173.0,-176.0,-119.0,-33.375,-205.5625,-84.625,136.375,-60.625,-53.6875,93645.0,4744.55,7365.95,840.55,-98.0,797.0,1288.0,506.0,275.0,544.0,87.125,173.9375,-2.0625,194.5,-41.125,-35.9375,93666.5,4706.75,7283.85,800.6,-934.0,243.0,-278.0,-173.0,-176.0,-668.0,-33.375,-205.5625,-84.625,136.375,-60.625,-53.6875,93645.0,LivingRoom ,EATING,1,0,1
4753.709375,7358.1375,789.03125,-762.4375,238.25,482.8125,-36.625,-39.375,-54.4375,-34.8125,41.36328125,32.80859375,189.890625,-49.33984375,-27.42578125,93639.46875,4754.575000000001,7358.05,786.175,-871.0,229.5,409.5,-19.0,-23.5,-52.5,4.75,-6.4375,-5.625,197.875,-58.28125,-28.90625,93653.25,10.158185841149722,13.189863532273511,15.186154604331763,437.0295136868142,157.4985714220926,216.4024703340206,292.62259539094606,119.26546021376012,185.55285635096,57.48619852480535,157.5410366822952,71.70952135158872,17.141499047146763,15.796920334587108,6.695467168089045,21.634246578053048,4750.0,7350.0,800.0,-1321.0,329.0,127.0,-562.0,-312.0,-326.0,-145.625,-169.1875,-43.9375,160.1875,-60.125,-35.0625,93612.5,4767.2,7378.7,815.6,8.0,507.0,1075.0,399.0,104.0,275.0,29.1875,428.75,169.625,206.75,-22.1875,-10.8125,93657.25,4731.7,7341.6,760.25,-1321.0,-81.0,127.0,-562.0,-312.0,-326.0,-145.625,-169.1875,-43.9375,160.1875,-72.4375,-35.0625,93612.5,LivingRoom ,EATING,2,0,1
4763.125,7370.803125,726.634375,-844.3125,233.5625,457.1875,-23.0,-2.4375,38.0625,-13.453125,-24.87109375,14.88671875,146.87109375,-57.2578125,-31.32421875,93652.546875,4759.625,7369.725,731.075,-782.0,250.5,483.0,-24.0,38.0,-1.5,-14.21875,3.34375,13.46875,146.84375,-52.5625,-25.28125,93653.25,12.59362272474969,20.081404903956958,16.94369812791765,287.1122239938012,134.5173935469561,319.89398634547666,210.38124124233764,125.14310142126627,271.83781163284357,41.298919855729885,111.69367630924303,19.088202873300872,3.465715170152475,12.055122420054472,18.5640672563681,9.471544554611988,4750.0,7350.0,750.0,-1499.0,-35.0,-137.0,-469.0,-263.0,-246.0,-81.5625,-257.1875,-20.4375,141.6875,-83.125,-89.75,93642.25,4790.65,7396.9,748.1,-399.0,420.0,1130.0,276.0,153.0,641.0,49.3125,159.375,43.9375,156.25,-45.1875,-17.3125,93663.25,4745.35,7323.15,687.5,-1499.0,-35.0,-137.0,-469.0,-263.0,-246.0,-81.5625,-257.1875,-20.4375,141.6875,-83.125,-89.75,93642.25,LivingRoom ,EATING,0,0,1
4800.726470588235,7272.252941176472,707.4852941176471,-729.2352941176471,274.6470588235294,609.4117647058823,-13.941176470588236,18.176470588235293,-10.823529411764707,-0.6470588235294118,-17.169117647058822,-7.584558823529412,143.81617647058823,-46.95955882352941,-23.03676470588235,93656.29411764706,4799.6,7271.55,713.05,-742.0,294.0,598.0,-21.0,53.0,-46.0,-1.3125,-3.625,-1.5,143.5,-47.3125,-24.0,93652.25,8.618224107361327,23.419219341361888,16.085122830447652,113.7956114112956,138.96354790756754,197.08217157556686,111.78073994892597,105.9446997813704,187.07058670930795,34.738798928072825,52.77890372183799,15.805765938497682,1.400068111525923,2.720450364153614,4.575647731188063,8.523054806540559,4800.0,7250.0,700.0,-922.0,37.0,328.0,-281.0,-176.0,-40.0,-51.5625,-147.125,-41.3125,142.9375,-49.5,-29.0625,93652.25,4814.25,7312.65,729.05,-548.0,502.0,1002.0,132.0,182.0,400.0,49.1875,48.625,11.5625,147.875,-42.1875,-12.5625,93667.25,4789.5,7241.1,677.8,-922.0,37.0,328.0,-281.0,-176.0,-242.0,-51.5625,-147.125,-41.3125,141.9375,-51.125,-29.0625,93648.0,LivingRoom ,EATING,0,0,0
4765.123333333333,7244.5233333333335,808.4666666666668,-310.26666666666665,68.8,882.1333333333333,2.4,3.7333333333333334,-32.86666666666667,-14.408333333333333,-22.541666666666668,3.5166666666666666,142.54166666666666,-18.675,-4.125,93659.18333333333,4767.2,7243.25,810.25,-298.0,28.0,802.0,-53.0,-27.0,-127.0,-5.9375,-24.75,3.5625,142.4375,-17.625,-4.3125,93653.5,23.857238095047876,10.49288647926139,42.958554223255476,204.08837954833845,129.8819243994879,195.7600085624767,167.66880619670604,106.2022777981895,185.0084425358038,34.44855658217392,57.439990360022904,28.906179697469206,3.9987209636630183,5.979139704601562,2.381335534646772,7.428508470429181,4750.0,7250.0,850.0,-568.0,-157.0,614.0,-163.0,-27.0,-289.0,-68.5,-127.6875,-33.1875,146.375,-32.75,-8.8125,93666.75,4795.7,7260.1,867.65,262.0,285.0,1352.0,502.0,181.0,401.0,29.0,102.5,65.1875,149.0625,-9.4375,0.6875,93666.75,4722.55,7229.1,733.1,-568.0,-157.0,614.0,-163.0,-185.0,-289.0,-68.5,-127.6875,-33.1875,136.4375,-32.75,-8.8125,93649.75,LivingRoom ,EATING,1,0,0
4710.921875,7223.36875,867.16875,-279.75,-206.0625,917.0,3.9375,5.75,-7.0625,-9.13671875,-5.203125,2.00390625,137.73046875,-16.453125,12.96875,93652.46875,4708.5,7232.375,873.175,-238.0,-212.0,920.0,-24.0,13.0,-21.0,-3.59375,-31.34375,5.21875,137.9375,-13.03125,14.5625,93649.75,10.451873336871332,20.876692546154587,22.494739199792168,237.0899969772379,104.13162744014583,202.19825254767494,174.11508406798075,78.62696738397075,137.24502116045352,23.64157508004966,109.94214742877274,15.122683513207072,2.1795353516193154,10.871778737477445,4.301465351094516,13.847043908358202,4700.0,7250.0,850.0,-805.0,-176.0,402.0,-269.0,-145.0,-282.0,-51.75,-250.1875,-24.5625,134.625,-40.25,17.0,93638.0,4728.05,7244.85,897.35,-6.0,-39.0,1176.0,391.0,107.0,260.0,18.9375,199.0,23.875,141.4375,-4.25,17.0,93668.75,4691.95,7185.65,835.5,-805.0,-393.0,402.0,-269.0,-145.0,-282.0,-51.75,-250.1875,-24.5625,134.625,-40.25,3.375,93638.0,LivingRoom ,EATING,1,0,1
4702.696875,7187.571875000001,848.49375,-508.875,-160.6875,659.9375,-11.0625,11.4375,-31.625,14.74609375,17.65234375,12.09765625,139.6015625,-35.1640625,12.5234375,93649.96875,4704.0,7186.325,847.125,-317.5,-122.5,825.0,8.0,25.5,-53.0,16.4375,60.34375,13.78125,139.4375,-33.9375,13.46875,93655.5,9.783361193884181,6.0807063391790255,10.416747333020984,488.3909465445348,147.82995580508484,383.36292095958714,285.97190275736295,104.70591753414259,224.600645591236,31.65423112803866,189.96896260852006,13.248996989355772,1.8004448235089017,28.177736437286207,6.417622020330688,9.010584054321894,4700.0,7200.0,850.0,-1592.0,-373.0,954.0,211.0,100.0,-301.0,-37.3125,-400.125,-20.5,141.0,-85.9375,-2.1875,93638.75,4716.1,7198.65,864.45,170.0,105.0,1225.0,460.0,144.0,532.0,60.375,264.875,29.6875,142.4375,-1.6875,20.25,93657.5,4687.95,7180.0,835.2,-1592.0,-373.0,-143.0,-614.0,-207.0,-301.0,-37.3125,-400.125,-20.5,136.9375,-85.9375,-2.1875,93638.75,LivingRoom ,EATING,4,0,2
4675.025,7201.459375,796.0843749999999,-791.625,53.3125,381.3125,20.125,29.875,-10.5625,-1.05078125,63.359375,-2.78125,145.21484375,-63.04296875,-34.4296875,93643.0625,4671.55,7204.15,792.275,-904.0,48.0,360.0,1.5,39.0,12.0,1.4375,50.1875,3.15625,145.65625,-67.875,-3.71875,93648.75,16.486681493456175,11.916504223834467,43.75832765981047,287.48979692040086,66.93551000776793,323.3878411958825,143.38566873994068,33.94087997287833,90.8647117055534,23.27152026832279,57.55822007252019,12.116147971474541,1.3864990289544623,23.15037705270244,72.04319405673122,12.781986022002476,4650.0,7200.0,750.0,-1119.0,-76.0,-35.0,-175.0,32.0,22.0,-48.5625,-23.0,-26.625,146.375,-88.9375,-179.75,93627.75,4698.0,7218.25,856.9,-156.0,180.0,840.0,326.0,80.0,161.0,37.875,209.0,17.0625,147.125,-29.6875,7.6875,93659.5,4641.7,7179.1,724.3,-1119.0,-76.0,-35.0,-175.0,-55.0,-196.0,-48.5625,-23.0,-26.625,141.8125,-88.9375,-179.75,93627.75,LivingRoom ,EATING,0,0,0
4670.205882352941,7227.0,753.3000000000001,-890.5294117647059,368.88235294117646,-101.82352941176471,-13.0,10.117647058823529,8.117647058823529,-14.507352941176471,15.261029411764707,33.088235294117645,114.81985294117646,-66.72426470588235,-120.4779411764706,93653.66176470589,4653.45,7232.3,737.25,-882.0,394.0,-100.0,-19.0,-1.0,4.0,-15.5,16.1875,33.375,113.75,-64.6875,-109.0,93659.5,28.316673987869702,17.05199768355599,37.151858970985565,98.34068184572625,173.27899553644014,56.66925455451753,24.994999499899976,36.82709999603073,41.20510034107,21.408894480277283,10.636396353545024,15.764998730492383,21.867073143602166,12.56790265557171,26.83131388641495,8.131219339138285,4650.0,7250.0,700.0,-1023.0,53.0,-149.0,-65.0,-53.0,-58.0,-41.25,12.0625,6.375,86.9375,-85.125,-177.6875,93644.25,4716.6,7246.05,813.4,-747.0,582.0,25.0,32.0,77.0,119.0,29.5625,28.125,55.625,144.625,-51.0625,-103.5625,93660.75,4640.85,7195.55,713.75,-1023.0,53.0,-198.0,-65.0,-53.0,-58.0,-41.25,-14.625,6.375,86.9375,-85.125,-177.6875,93644.25,LivingRoom ,EATING,0,0,0
4682.493333333332,7230.193333333334,733.8833333333333,-844.4666666666667,433.93333333333334,-268.1333333333333,-10.6,0.06666666666666667,4.466666666666667,28.433333333333334,-9.6375,-8.129166666666666,115.575,-58.266666666666666,-122.00833333333334,93661.05,4690.35,7234.9,758.15,-869.0,416.0,-237.0,-6.0,10.0,8.0,20.75,-2.0625,-2.5625,123.9375,-61.8125,-122.6875,93660.75,53.55652843580543,20.703112832431234,99.8513371157819,86.3620838320239,67.89852372334411,75.87100581783217,66.55803053404922,37.92749976066492,45.72255877520834,17.51732985469233,27.67464027382676,12.49751016869627,16.099270031144712,5.78307001596244,4.747583188418333,11.808063225730844,4700.0,7250.0,800.0,-1023.0,349.0,-175.0,-129.0,22.0,-31.0,6.8125,-76.375,-33.0,87.875,-64.1875,-129.5,93649.0,4754.2,7255.85,844.5,-699.0,558.0,-175.0,72.0,43.0,66.0,56.1875,25.625,5.875,131.875,-49.5625,-111.0625,93675.75,4592.95,7201.75,552.75,-1023.0,349.0,-425.0,-129.0,-102.0,-98.0,6.8125,-76.375,-33.0,87.875,-64.1875,-129.5,93649.0,LivingRoom ,EATING,0,0,0
4531.536666666666,7184.326666666666,436.28000000000003,-867.6,375.6666666666667,-328.2,-15.466666666666667,16.866666666666667,0.26666666666666666,-2.475,1.9583333333333333,0.4708333333333333,108.82083333333334,-60.145833333333336,-132.5125,93657.13333333333,4523.0,7187.95,421.05,-867.0,377.0,-325.0,-14.0,14.0,6.0,-2.125,0.25,0.5625,111.875,-60.0625,-132.3125,93657.25,24.521939642074038,16.571973615831368,41.054518630718334,9.500375932411457,8.423323628614831,22.22353964348871,8.210330310622332,10.098561896673822,19.56843911822835,5.243661139209621,6.512722210814623,2.84513473611825,21.10078740631891,0.2518532499766671,1.3576831631233304,2.7416540019970914,4500.0,7200.0,400.0,-871.0,374.0,-325.0,-14.0,14.0,-6.0,-10.3125,-0.0625,1.25,131.9375,-60.125,-134.5625,93657.25,4575.5,7208.35,521.65,-848.0,388.0,-297.0,-5.0,41.0,36.0,11.5,22.1875,6.6875,132.1875,-59.9375,-130.75,93660.75,4500.5,7157.45,393.2,-883.0,354.0,-373.0,-34.0,3.0,-33.0,-10.3125,-4.5,-5.125,74.6875,-61.0,-134.5625,93651.0,LivingRoom ,EATING,0,0,0
4472.421875,7260.571875,518.4625000000001,-852.375,392.125,-311.5,-6.5,9.6875,3.8125,0.17578125,-0.40625,0.4921875,50.41796875,-59.60546875,-129.5078125,93669.09375,4474.225,7241.25,531.225,-851.5,391.0,-310.0,-5.0,9.5,3.5,0.3125,-0.5625,0.75,48.8125,-59.5625,-129.625,93651.0,17.261961734306755,43.665001121225885,27.198734651940462,7.392563831310488,3.4809002666934696,6.782329983125268,6.572670690061994,2.774136502289196,5.344389581607987,0.7214058720939737,1.2433154601038843,1.5865441676276564,11.66899646566169,0.2125229766989913,0.51228399919706,32.5839780413626,4450.0,7250.0,550.0,-852.0,391.0,-324.0,-7.0,7.0,3.0,-0.875,-0.6875,0.75,34.0,-59.375,-129.625,93640.75,4496.5,7328.15,542.6,-839.0,399.0,-302.0,4.0,17.0,12.0,1.1875,1.5625,2.75,71.4375,-59.375,-128.8125,93709.5,4446.15,7208.6,461.85,-866.0,385.0,-324.0,-22.0,6.0,-11.0,-0.9375,-3.75,-2.5625,34.0,-60.0,-130.3125,93640.75,LivingRoom ,EATING,0,0,0
4547.490625,7307.421875,537.721875,-847.5625,402.875,-97.1875,-10.25,5.6875,-25.3125,-10.58984375,-64.11328125,8.67578125,26.04296875,-59.53515625,-102.2578125,93666.515625,4533.375,7311.75,539.45,-871.5,391.5,-270.0,-14.5,9.0,-10.0,-5.625,-32.25,0.53125,25.15625,-60.65625,-123.5,93659.0,55.06999249061745,17.671021181112717,13.229839615429949,121.21714331452186,31.723545409259245,297.34003402389885,63.09093965591784,15.023176539378525,39.77221601403003,10.567564583382413,64.72650884502906,15.465186352976536,3.1266427973613595,6.471530954157988,34.020029907333026,20.612590964020026,4500.0,7300.0,550.0,-874.0,388.0,-311.0,-16.0,7.0,-10.0,-0.4375,-160.75,-1.6875,24.75,-60.625,-128.75,93659.0,4650.95,7327.85,561.05,-501.0,491.0,576.0,132.0,27.0,9.0,0.25,-1.9375,36.9375,32.875,-40.25,-38.25,93709.5,4473.8,7269.8,512.45,-1089.0,375.0,-311.0,-189.0,-44.0,-140.0,-26.875,-160.75,-8.0,21.875,-66.5625,-128.75,93636.25,LivingRoom ,EATING,0,0,0
4778.384375000001,7247.953124999999,667.1875,-464.875,448.5,722.0625,-17.1875,6.0,-7.0625,-12.58984375,-12.8046875,6.47265625,26.16015625,-27.44921875,-31.62109375,93638.71875,4799.5,7250.775,657.3,-503.5,452.5,670.5,-2.0,3.0,-5.5,-8.21875,0.6875,2.28125,25.25,-34.0,-33.90625,93636.25,54.06902600303303,8.281957674165366,70.29204909992785,247.96098483430816,59.131491891658996,143.36827577954617,135.44899101383763,46.66333321427721,125.12525391249628,21.301738103355753,65.41003632136662,12.795547092274914,1.8588146914880104,9.796343353464001,4.713426563972153,7.040285860673556,4800.0,7250.0,600.0,-964.0,441.0,608.0,-384.0,-120.0,-217.0,-52.6875,-157.0,-14.25,24.5625,-36.8125,-35.25,93631.5,4834.7,7266.15,772.3,-51.0,576.0,1165.0,186.0,76.0,331.0,16.4375,87.75,29.375,29.5625,-11.3125,-21.9375,93647.0,4669.3,7236.35,572.5,-964.0,336.0,608.0,-384.0,-120.0,-217.0,-52.6875,-157.0,-14.25,24.5625,-36.8125,-35.6875,93631.5,LivingRoom ,EATING,0,0,0
4767.565625,7235.24375,799.0531249999999,-403.75,399.625,801.875,-43.6875,-22.6875,1.3125,1.96875,2.359375,11.890625,20.57421875,-21.9296875,-28.04296875,93644.625,4756.675,7239.700000000001,804.25,-417.5,390.5,782.5,-49.0,-18.5,16.0,0.96875,0.625,9.40625,20.5,-22.4375,-26.46875,93639.75,33.98498550217929,13.301502108158166,11.85223563650899,92.40526680516287,107.26905425144756,175.85784979162383,62.73937493047461,97.05649128213939,140.77865309295535,40.47423949254637,21.017211448794374,24.262040610454292,1.9682663096301274,2.794421060345058,4.9674837878237375,11.390785749894517,4750.0,7250.0,800.0,-528.0,173.0,559.0,-97.0,-291.0,-244.0,-48.75,-28.5,-28.4375,16.6875,-24.9375,-23.125,93635.25,4817.25,7255.05,813.45,-218.0,657.0,1096.0,77.0,187.0,257.0,76.1875,41.875,54.375,23.5625,-17.5625,-22.125,93660.75,4722.65,7211.05,773.55,-528.0,173.0,559.0,-140.0,-291.0,-244.0,-48.75,-28.5,-28.4375,16.6875,-25.25,-37.5625,93635.25,LivingRoom ,EATING,0,0,0
4664.584374999999,7221.575000000001,733.8781250000001,-380.3125,404.375,808.0625,-21.375,-8.5625,-0.5625,0.81640625,-1.421875,0.21484375,20.70703125,-21.72265625,-27.2734375,93661.5,4663.799999999999,7221.575,728.0,-382.5,400.0,782.0,-12.0,-17.0,-16.5,2.125,11.125,-0.46875,20.6875,-21.71875,-27.28125,93664.25,27.672234693220336,7.192820494539427,31.78693111301142,88.27360401992584,95.02903065204163,180.3993602168995,77.39239842086128,63.78293267011168,146.97934945653645,31.562169707430208,29.700470850644777,6.011749292617887,0.671875,1.6251552409821244,2.8907967291331063,6.162385901580653,4650.0,7200.0,700.0,-520.0,259.0,968.0,-152.0,-121.0,-212.0,-44.8125,-11.75,-8.375,20.25,-21.5625,-28.5625,93654.5,4710.95,7236.6,784.9,-200.0,547.0,1123.0,111.0,90.0,279.0,43.625,46.6875,9.5625,21.625,-18.5,-22.6875,93670.25,4616.8,7208.85,695.05,-520.0,259.0,528.0,-152.0,-121.0,-212.0,-44.8125,-58.5,-8.375,19.625,-24.25,-31.125,93654.5,LivingRoom ,EATING,0,0,0
4617.3875,7241.3,723.4437499999999,-469.5625,462.3125,701.875,-2.9375,-4.0625,-18.5,0.38671875,0.74609375,-10.55859375,21.51171875,-28.046875,-32.703125,93653.28125,4615.375,7243.025,713.5,-444.5,458.5,693.5,11.0,4.5,-28.5,2.25,-7.9375,-7.03125,21.21875,-27.21875,-32.9375,93653.75,9.569874607328908,8.16233218306305,16.44708560809483,134.57536612124326,99.87773775972302,175.07974373600925,131.20338854872105,69.10713301341139,155.78361060565175,33.16672072925347,38.17267148507282,15.059594615193276,2.2144434437630145,3.5567204580437113,3.091107878522952,9.251520145359896,4600.0,7250.0,700.0,-823.0,273.0,789.0,-307.0,21.0,-239.0,-54.5,-77.9375,-42.25,21.5,-33.75,-36.875,93646.0,4644.65,7251.55,755.75,-203.0,617.0,1109.0,298.0,108.0,351.0,47.3125,64.375,8.25,27.9375,-22.0,-27.0,93670.25,4605.0,7217.3,704.1,-823.0,273.0,439.0,-307.0,-162.0,-239.0,-54.5,-77.9375,-42.25,19.0625,-33.75,-36.875,93643.25,LivingRoom ,EATING,0,0,0
4688.656666666666,7152.58,710.9366666666667,-625.8,420.93333333333334,623.8666666666667,-50.2,-20.0,-27.266666666666666,11.595833333333333,-4.654166666666667,-3.15,22.879166666666666,-35.9125,-34.041666666666664,93661.11666666667,4694.2,7141.65,698.7,-646.0,401.0,642.0,-62.0,-25.0,-31.0,8.4375,-27.875,-0.75,19.1875,-35.75,-33.6875,93643.25,13.672010859869212,25.620902459849994,31.886212127023253,119.58989446078986,77.47392802620456,107.83974000251266,82.98640163992447,51.984887913975264,90.52108410015131,29.76537592852922,70.42314653899228,26.29983364966402,7.537164862643424,4.892927202313852,4.234324206776713,27.79964456778608,4700.0,7150.0,700.0,-772.0,336.0,444.0,-124.0,-32.0,-205.0,-34.375,-107.25,-59.875,18.1875,-42.5,-37.875,93693.75,4704.45,7209.3,769.95,-292.0,635.0,821.0,207.0,112.0,147.0,60.0625,133.9375,35.0625,41.9375,-29.0,-27.0,93693.75,4656.7,7129.9,679.6,-772.0,336.0,444.0,-124.0,-122.0,-205.0,-34.375,-107.25,-59.875,16.1875,-44.125,-41.125,93634.5,LivingRoom ,EATING,0,0,0
4700.869999999999,7199.843333333334,735.7533333333333,-504.53333333333336,365.3333333333333,804.8666666666667,-35.53333333333333,-8.666666666666666,16.866666666666667,-5.391666666666667,-1.3916666666666666,-2.125,60.329166666666666,-28.1375,-26.0375,93685.46666666666,4698.5,7201.3,715.3,-557.0,334.0,881.0,-29.0,-24.0,105.0,19.75,-24.875,-1.8125,63.375,-27.625,-26.1875,93683.0,12.740525891814647,33.6413216715623,46.498204522427784,196.56291855886997,185.56272203630718,332.130109330379,168.0832560143364,147.61081390247932,321.6612829551933,56.80390703258594,51.50780360144701,17.890337450901892,8.439962162801669,3.2685937889469923,3.659305042334834,24.082052198582208,4700.0,7200.0,700.0,-567.0,-1.0,296.0,-358.0,-327.0,-490.0,-94.375,-69.1875,-1.8125,69.5,-29.6875,-33.4375,93707.0,4735.9,7240.8,812.05,-182.0,726.0,1278.0,222.0,277.0,491.0,85.0,109.8125,27.75,71.3125,-22.4375,-20.6875,93707.0,4689.2,7147.2,686.25,-890.0,-1.0,296.0,-358.0,-327.0,-490.0,-94.375,-69.1875,-39.3125,47.75,-33.4375,-33.4375,93634.5,LivingRoom ,EATING,0,0,1
4791.578125,7218.696875,794.865625,-677.1875,283.625,584.9375,-55.625,-23.125,-27.75,-7.3828125,44.35546875,-14.86328125,84.40625,-41.87109375,-23.6875,93643.6875,4799.65,7221.35,797.55,-537.5,289.5,559.0,-17.0,13.5,-101.5,-5.40625,54.9375,-11.375,86.96875,-34.78125,-24.3125,93633.5,20.260133010011014,20.87973873359849,15.399434175211344,288.0197258869607,143.3954322842956,187.1507302506013,210.57124685008634,96.76216547115234,224.3302624851731,36.187042131530546,70.03764508116778,21.818166870728586,6.1845742240944395,14.537388376434457,3.273472926419279,20.490546600810823,4800.0,7200.0,800.0,-1085.0,106.0,312.0,-527.0,37.0,-256.0,-61.625,-54.5625,-57.8125,74.0,-32.125,-27.0,93631.0,4812.6,7248.7,813.35,-247.0,475.0,1158.0,188.0,69.0,522.0,50.5,144.0625,23.5625,91.3125,-28.25,-18.75,93678.0,4745.4,7183.45,762.1,-1085.0,106.0,312.0,-527.0,-237.0,-256.0,-61.625,-54.5625,-57.8125,74.0,-71.0625,-27.9375,93631.0,LivingRoom ,EATING,0,0,1
4751.940625,7294.159374999999,720.496875,-951.8125,160.25,183.4375,-14.1875,11.8125,-9.0,3.23046875,10.84765625,5.65234375,96.72265625,-75.28515625,-40.0234375,93661.875,4745.0,7285.3,727.875,-957.5,173.5,173.5,-10.5,23.5,5.0,4.3125,16.5625,7.3125,97.5,-75.65625,-37.0,93655.5,21.986679442714173,32.940831899786616,20.05509468730245,112.86228702863208,59.63052909374526,140.85594000017653,117.55124768939432,44.69335334625646,101.21857537033408,15.352655150894638,62.18741402318177,12.282545388638233,4.032935290491489,2.820587330792117,13.767713495560304,18.71697090877688,4750.0,7300.0,750.0,-1190.0,176.0,-150.0,-45.0,43.0,-32.0,-28.5625,-202.0625,-17.0,92.1875,-75.5625,-65.3125,93645.0,4797.55,7344.4,749.2,-728.0,275.0,471.0,192.0,69.0,141.0,24.8125,67.8125,24.75,101.4375,-68.75,-21.3125,93684.75,4724.65,7246.8,686.35,-1190.0,26.0,-150.0,-324.0,-97.0,-305.0,-28.5625,-202.0625,-17.0,91.625,-80.25,-65.3125,93645.0,LivingRoom ,EATING,0,0,0
4734.684375,7345.159374999999,683.484375,-930.4375,212.75,230.25,-13.1875,5.6875,-2.4375,-0.74609375,4.4140625,3.07421875,106.01171875,-70.0546875,-46.3984375,93651.890625,4736.775,7350.15,684.375,-943.5,194.0,203.0,-34.0,15.0,-7.5,-1.3125,27.5625,2.625,107.0,-70.21875,-39.96875,93655.5,14.93592669538796,17.95954916611216,8.68730335508858,93.01108804868375,62.610435764868036,168.90569360839598,80.84323822476847,50.30800963398705,49.83301281948209,11.066735741579734,62.54760218475605,24.88884893747181,4.960480211863733,4.668035978421046,22.75950894452324,21.885872298128763,4750.0,7350.0,700.0,-1063.0,190.0,-20.0,-46.0,-78.0,-47.0,-5.625,-129.5625,-29.125,97.25,-68.6875,-81.125,93672.75,4752.05,7367.2,704.4,-748.0,341.0,508.0,153.0,87.0,87.0,17.875,106.3125,48.8125,112.0625,-62.875,-18.75,93672.75,4712.15,7318.0,671.15,-1063.0,97.0,-20.0,-113.0,-78.0,-82.0,-20.4375,-129.5625,-29.125,97.25,-76.25,-81.125,93625.75,LivingRoom ,EATING,0,0,0
4726.078125,7320.36875,743.340625,-809.8125,534.8125,-94.125,-7.9375,-11.0625,-6.25,-12.51171875,22.73828125,20.4921875,68.0703125,-55.5078125,-97.9375,93660.4375,4728.85,7341.375,744.525,-787.0,570.0,-110.5,-7.5,-7.5,-10.5,-19.0625,24.59375,16.34375,61.40625,-51.84375,-98.90625,93670.75,18.60671893653846,39.48625446489775,21.633355563034286,75.17997849605084,90.66437650293895,64.8874666891329,29.97658808692766,23.11267689674507,40.97234839905242,17.667284070628728,13.501103711633789,22.39793837006359,14.987701121113716,7.3857575144666106,4.852029214668848,17.211309266487156,4750.0,7350.0,750.0,-787.0,600.0,-229.0,-65.0,-45.0,-7.0,-31.625,-0.375,-13.5625,55.6875,-70.75,-106.6875,93670.75,4749.85,7362.3,773.2,-713.0,623.0,31.0,38.0,28.0,108.0,19.625,45.0625,47.375,97.0625,-49.0,-86.625,93672.75,4687.4,7259.35,707.65,-955.0,351.0,-229.0,-65.0,-45.0,-62.0,-31.625,-0.375,-13.5625,54.3125,-70.75,-106.6875,93635.75,LivingRoom ,EATING,0,0,0
4682.362499999999,7198.549999999999,686.43125,-892.1875,402.5,-34.75,-18.3125,-3.3125,-4.625,13.5703125,-24.21875,-14.984375,84.8828125,-60.78515625,-80.40625,93653.84375,4688.35,7207.75,679.0,-895.0,344.0,40.0,-32.0,1.5,-5.0,12.8125,-2.3125,-10.375,99.90625,-66.96875,-78.96875,93649.0,18.336543658316128,43.963537922540645,56.56248425414144,139.6463240953135,162.90979098875547,186.63565218539213,107.91707850629265,97.89090441234399,67.01330713621985,18.071903189643123,63.86375064019755,26.246939305691754,27.296108496679523,18.182379988804865,28.987703930574884,9.470513449649918,4700.0,7150.0,650.0,-998.0,47.0,-371.0,-251.0,-279.0,-136.0,-17.8125,-179.3125,-61.5625,0.0,-72.9375,-115.125,93649.0,4707.9,7255.0,763.1,-681.0,611.0,221.0,189.0,130.0,100.0,46.5,44.6875,26.1875,103.25,0.0,0.0,93665.0,4650.9,7143.2,614.4,-1131.0,47.0,-371.0,-251.0,-279.0,-136.0,-17.8125,-179.3125,-61.5625,0.0,-72.9375,-115.125,93635.75,LivingRoom ,EATING,0,0,0
4746.684375,7192.003124999999,632.3625,-894.0625,339.875,140.5625,-9.625,7.1875,-20.875,7.22265625,-22.4921875,-9.47265625,104.890625,-64.45703125,-68.5234375,93655.578125,4745.975,7175.325,619.975,-890.0,376.5,135.5,-10.5,26.5,-33.5,9.40625,2.75,-11.9375,102.78125,-66.46875,-79.46875,93654.0,13.375484025509785,42.41893236417756,35.26911065885652,94.64281536387219,77.82362537601719,237.41439685354663,68.6234896615826,48.2593255236747,58.18576572782499,16.500567678839367,69.04289455883567,17.957356442155536,5.544164537301059,4.3528438231756414,29.430336840792357,5.115921837753192,4750.0,7150.0,600.0,-1133.0,182.0,-124.0,-168.0,32.0,-49.0,-20.6875,-166.5,-35.0,99.75,-66.5625,-101.6875,93660.5,4765.45,7273.1,706.5,-722.0,430.0,517.0,95.0,74.0,98.0,31.375,57.6875,30.25,116.0,-55.125,-32.5,93660.5,4711.7,7141.85,593.55,-1133.0,182.0,-124.0,-168.0,-109.0,-103.0,-20.6875,-166.5,-35.0,99.75,-69.1875,-101.6875,93647.25,LivingRoom ,EATING,0,0,0
4693.788235294117,7326.74705882353,758.6558823529411,-677.0,132.64705882352942,598.9411764705883,-14.588235294117647,3.588235294117647,-37.05882352941177,-12.110294117647058,-45.13235294117647,-12.007352941176471,118.59191176470588,-43.05514705882353,-13.669117647058824,93668.36764705883,4686.3,7331.65,758.25,-757.0,138.0,474.0,-92.0,-32.0,-10.0,-8.4375,-38.375,-16.875,123.1875,-45.25,-15.5,93666.25,26.17078242890674,23.36276063650925,19.888587198071498,359.57752988750565,173.76059002851832,362.3538447754203,280.90502372321714,135.80733541654212,227.52814951897582,46.07220115687266,65.7391190882008,47.73877016566459,31.382073387542494,19.222533702146215,12.291339778388446,4.759954739033456,4700.0,7350.0,750.0,-1049.0,-138.0,942.0,-243.0,-220.0,-456.0,-114.25,-151.0625,-100.5625,0.0,-66.4375,-33.375,93664.0,4746.2,7360.5,787.1,449.0,456.0,1361.0,968.0,295.0,543.0,62.25,72.5,69.125,137.875,0.0,4.5625,93674.5,4661.6,7283.8,726.85,-1049.0,-138.0,22.0,-243.0,-220.0,-456.0,-114.25,-151.0625,-100.5625,0.0,-66.4375,-33.375,93664.0,LivingRoom ,EATING,1,0,2
4732.240624999999,7306.181250000001,764.996875,-615.1875,36.625,574.0,31.0,-3.0625,-56.0,-6.83203125,17.4921875,15.62109375,133.12109375,-44.0703125,-11.74609375,93654.390625,4726.475,7307.375,764.925,-526.0,22.5,753.5,10.0,19.0,-38.0,-6.84375,-5.53125,7.09375,131.53125,-36.59375,-5.40625,93656.0,21.95593479942655,15.510586438515821,20.968217765227458,369.3176083445431,194.6055412023683,448.5921681587111,211.69411895468423,112.70520174330908,186.0007168444968,30.262503603452217,202.59180258974573,43.655901595782275,5.041467045807037,21.920011725875057,23.467946543614726,4.716079542374153,4700.0,7300.0,750.0,-500.0,-280.0,-189.0,-449.0,-190.0,-457.0,-56.0,-333.75,-44.1875,131.0,-79.375,5.9375,93650.0,4764.6,7325.05,794.45,-35.0,303.0,1078.0,447.0,220.0,301.0,55.8125,506.625,112.375,140.0,-18.8125,7.5625,93666.25,4705.45,7272.45,727.05,-1279.0,-280.0,-189.0,-449.0,-190.0,-457.0,-56.0,-333.75,-44.1875,125.1875,-79.375,-66.1875,93650.0,LivingRoom ,EATING,1,0,2
4705.28,7321.373333333333,787.4266666666664,-576.0,287.1333333333333,726.4,-4.333333333333333,-1.0,-8.066666666666666,13.0625,1.325,-4.229166666666667,139.75416666666666,-34.94583333333333,-21.0875,93670.3,4706.1,7321.75,783.65,-636.0,276.0,719.0,-50.0,29.0,0.0,16.625,10.5,-1.9375,139.6875,-35.9375,-20.625,93666.0,18.50056755886158,5.61381798609053,14.391923164780732,266.7385022291093,107.36710500938003,105.29672359575106,216.75287662176373,127.14895651501487,83.15172592201272,20.764127613162906,68.94090459148948,42.586005851044995,8.755657184820294,4.514786388186309,5.039951990984494,10.78987620741909,4700.0,7300.0,800.0,-1106.0,255.0,536.0,-67.0,-251.0,-166.0,-28.8125,-108.5625,-78.1875,128.625,-32.125,-26.875,93666.0,4740.45,7332.8,815.4,34.0,492.0,875.0,456.0,230.0,132.0,43.625,111.6875,63.1875,149.8125,-25.4375,-9.5,93684.5,4667.5,7311.7,770.9,-1106.0,77.0,536.0,-470.0,-251.0,-166.0,-28.8125,-108.5625,-78.1875,128.625,-40.625,-26.875,93659.0,LivingRoom ,EATING,2,0,0
4667.771875,7286.165625,822.409375,-619.25,233.9375,707.4375,-21.75,0.8125,-3.5625,-3.3046875,-13.43359375,-2.88671875,133.65234375,-38.3515625,-18.33203125,93655.375,4666.55,7283.25,823.7,-669.0,229.5,674.0,-26.5,-2.5,3.0,-4.21875,-14.40625,-4.34375,134.34375,-41.90625,-18.84375,93653.0,8.283517142494537,12.620006850896223,6.896767811808649,139.04507662385365,38.37615362001078,123.83858782032898,42.82133424668908,13.362728014892767,35.379784717641606,5.587787790873356,38.870005498764186,4.888561199264905,9.795991121744224,8.175289081280246,4.657415611934549,18.398369492974098,4650.0,7300.0,800.0,-795.0,235.0,523.0,-30.0,-3.0,23.0,-10.75,-79.125,-8.5625,120.0625,-47.75,-24.4375,93638.5,4689.55,7318.25,832.7,-381.0,296.0,871.0,92.0,25.0,37.0,7.0625,44.8125,6.8125,147.6875,-26.4375,-12.0625,93684.25,4658.75,7272.5,811.0,-795.0,176.0,523.0,-78.0,-18.0,-76.0,-10.75,-79.125,-8.5625,120.0625,-47.75,-24.4375,93638.5,LivingRoom ,EATING,0,0,0
4748.60625,7263.909375,829.803125,-573.0,184.6875,790.375,-17.25,-1.1875,1.375,-0.2578125,15.703125,5.453125,96.69921875,-34.34375,-13.4140625,93653.84375,4746.025,7267.475,827.425,-558.0,172.5,806.5,-18.5,-4.0,2.5,0.03125,13.25,4.40625,95.90625,-33.84375,-12.5625,93652.25,26.35721201113653,13.305377593915429,15.886634516158542,51.14815083004793,27.73858624131134,43.790219608188,31.06230298394932,14.909588637294233,21.244214898806373,3.7888181837040777,16.710393160645065,5.908040954213728,15.295444902506922,3.010312137746959,1.95521138563072,14.25595635749025,4750.0,7250.0,850.0,-666.0,164.0,692.0,-26.0,-15.0,5.0,-1.0625,-12.125,-0.375,73.375,-41.3125,-11.875,93647.25,4788.85,7279.8,850.8,-483.0,246.0,848.0,58.0,36.0,44.0,7.875,52.375,19.6875,119.75,-30.0,-11.625,93684.25,4700.8,7240.95,805.45,-666.0,161.0,692.0,-74.0,-25.0,-33.0,-5.9375,-12.125,-0.375,73.375,-41.3125,-17.625,93633.0,LivingRoom ,EATING,0,0,0
4781.286666666666,7271.89,833.4966666666667,-686.8666666666667,221.66666666666666,678.8,-14.533333333333333,0.13333333333333333,0.5333333333333333,0.19166666666666668,0.39166666666666666,-0.6625,61.2625,-43.12916666666667,-18.079166666666666,93656.43333333333,4782.8,7271.7,832.85,-688.0,219.0,683.0,-16.0,-1.0,4.0,0.6875,0.3125,-1.3125,60.1875,-43.25,-18.125,93653.5,4.099279843837801,3.2925890811250094,7.304633232864385,11.217758030823061,6.976149845485449,18.594161910203354,8.373996030797336,4.911599487316685,14.386832604188887,1.162199141816107,6.281681606825024,2.394399156663018,6.458581984460676,0.4974638058142904,0.2839323150397107,17.316246156496536,4800.0,7250.0,850.0,-692.0,213.0,664.0,-20.0,-1.0,-17.0,-0.8125,-0.375,-3.3125,51.75,-43.5625,-18.1875,93674.5,4787.15,7279.8,843.65,-669.0,234.0,709.0,0.0,8.0,24.0,1.8125,10.4375,4.625,71.6875,-42.1875,-17.4375,93674.5,4774.45,7267.15,818.8,-703.0,213.0,641.0,-27.0,-10.0,-29.0,-1.875,-13.75,-3.3125,51.75,-43.6875,-18.5,93633.0,LivingRoom ,EATING,0,0,0
4796.178125,7268.784374999999,848.6125,-685.4375,229.1875,666.125,-6.5625,-0.625,-2.125,0.671875,3.33203125,0.76953125,44.03515625,-43.71484375,-18.859375,93659.875,4796.85,7267.575000000001,849.25,-686.5,228.5,666.5,-6.5,-0.5,-2.0,0.6875,3.34375,0.875,44.0,-43.375,-18.59375,93663.5,13.449386215858894,11.399922788481332,6.762013999788342,16.140915917836466,8.336416096460956,19.120233610846217,10.217427921611844,4.631414470763764,8.317651912248632,1.3160665826621387,5.5261084271807706,0.7248271165997677,4.257650512973675,1.0036311028585154,0.7515608757778707,5.244044240850758,4800.0,7250.0,850.0,-697.0,222.0,677.0,-11.0,0.0,-2.0,1.625,-3.6875,0.375,38.0625,-42.9375,-18.4375,93654.25,4811.75,7288.45,860.45,-665.0,247.0,696.0,18.0,11.0,14.0,2.25,14.75,1.75,51.0,-42.875,-17.9375,93664.75,4771.65,7253.15,839.55,-724.0,217.0,619.0,-27.0,-9.0,-18.0,-2.125,-3.6875,-0.8125,38.0625,-46.25,-20.4375,93653.5,LivingRoom ,EATING,0,0,0
4753.196875,7272.4625,853.43125,-636.3125,222.1875,711.625,-6.9375,-0.8125,-2.5625,1.0390625,-13.80078125,-2.48828125,35.76953125,-40.0390625,-17.6015625,93652.890625,4753.025,7272.3,852.95,-626.5,223.5,730.0,-7.0,-0.5,-8.0,0.59375,-2.15625,-1.4375,36.03125,-39.125,-16.53125,93663.5,20.548345178708157,7.916680701741916,3.556349954658558,75.18130862565953,13.392628569478063,70.97969193133109,23.662822457743005,9.880747272684726,28.560972789221776,3.489409199635377,26.49224747793761,4.0239658835894305,1.0342365214454896,4.66373838558368,1.816285558266284,15.973928954706166,4750.0,7250.0,850.0,-727.0,221.0,616.0,-5.0,-3.0,-8.0,-3.875,-80.625,-12.375,36.75,-46.4375,-20.375,93663.5,4780.15,7285.2,860.25,-507.0,240.0,805.0,36.0,14.0,52.0,6.875,15.1875,4.25,37.6875,-33.8125,-15.9375,93675.25,4722.0,7257.55,848.25,-732.0,194.0,616.0,-42.0,-22.0,-58.0,-3.875,-80.625,-12.375,33.875,-46.4375,-20.4375,93633.25,LivingRoom ,EATING,0,0,0
4711.925,7219.975,879.065625,-562.5625,200.125,781.875,-20.8125,-23.0,-0.8125,1.33203125,1.8046875,1.03125,31.8984375,-33.5546875,-15.83203125,93662.515625,4709.725,7222.775,883.0,-566.0,206.0,776.0,-14.5,-11.0,-5.0,-1.4375,-2.3125,-0.375,32.0625,-34.21875,-15.5,93659.0,8.173840386664462,14.916132206440201,9.838220007535254,53.99625758636735,29.886172945583603,55.30024110857625,55.79870816903679,40.68414924758781,53.01599601378185,16.38385127747111,19.05892555285231,7.716965886927323,1.2480975105468857,1.3131694721169846,1.9368572522581522,9.119790179421162,4700.0,7200.0,900.0,-578.0,183.0,625.0,-40.0,-25.0,-30.0,-38.5625,3.4375,-8.5625,32.9375,-34.5,-13.75,93659.0,4725.5,7255.3,887.85,-474.0,267.0,872.0,74.0,11.0,105.0,31.4375,61.875,21.25,33.5625,-31.625,-13.75,93675.25,4701.95,7197.2,858.05,-686.0,150.0,625.0,-166.0,-128.0,-141.0,-38.5625,-18.3125,-8.5625,28.875,-34.9375,-19.625,93654.0,LivingRoom ,EATING,0,0,0
4752.6375,7257.65,803.225,-633.25,284.3125,643.3125,-9.25,-8.4375,-2.125,-20.94921875,5.0625,19.78125,9.703125,-42.97265625,-26.15234375,93659.53125,4746.6,7263.9,791.25,-576.0,256.0,657.0,-46.5,4.0,-37.0,-29.3125,-6.125,15.8125,6.0,-37.3125,-24.78125,93658.5,23.633715323664248,15.527116066202842,49.674436752384686,239.3266944297411,96.23147007779384,257.92394712395355,120.90299141598331,87.33229166045436,153.48088914693363,35.468833287347145,123.11902904303624,22.660331528907516,9.049070509358037,13.127280927796575,8.625784044979621,3.713573077239763,4750.0,7250.0,750.0,-1046.0,196.0,203.0,-219.0,-131.0,-243.0,-65.25,-261.9375,-10.625,1.25,-66.125,-47.4375,93657.0,4803.55,7272.55,886.8,-330.0,478.0,1126.0,166.0,144.0,336.0,32.3125,201.9375,75.0625,27.875,-30.0,-15.1875,93663.75,4721.7,7225.75,744.5,-1046.0,160.0,203.0,-219.0,-131.0,-243.0,-65.25,-261.9375,-10.625,1.25,-66.125,-47.4375,93654.0,LivingRoom ,EATING,0,0,0
4834.378125,7220.137500000001,723.3812499999999,-499.875,322.375,778.25,-27.25,-9.0625,-22.625,4.578125,-11.92578125,-5.26171875,31.765625,-28.29296875,-22.76171875,93654.1875,4838.275,7221.174999999999,727.0,-501.0,319.0,782.5,-13.0,-2.5,0.0,8.875,-17.75,-5.4375,28.375,-29.0,-22.6875,93660.0,20.736071379362127,21.2260099877485,13.476311006107448,107.96720180993238,125.69268077338474,189.6658465125794,75.3865593679227,88.05261211344045,164.63732869553004,36.40902975796892,41.37103593013223,24.92154584422132,14.460083347500687,3.798212213084598,2.2882419960073426,8.355387483534201,4850.0,7200.0,750.0,-684.0,21.0,472.0,-44.0,-237.0,-285.0,-65.4375,-101.5625,-48.625,9.125,-33.9375,-26.4375,93643.75,4862.55,7249.7,746.4,-318.0,514.0,1055.0,72.0,132.0,237.0,56.1875,70.5625,40.1875,50.375,-21.625,-19.5625,93660.75,4802.9,7194.2,703.2,-684.0,21.0,472.0,-181.0,-237.0,-285.0,-65.4375,-101.5625,-48.625,9.125,-33.9375,-26.4375,93643.75,LivingRoom ,EATING,0,0,0
4841.756249999999,7203.740624999999,787.759375,-501.6875,334.9375,738.1875,-12.1875,-12.3125,-8.5,0.2109375,6.67578125,-5.79296875,71.92578125,-30.30859375,-24.78125,93660.40625,4842.6,7204.2,787.525,-487.0,367.5,687.0,19.0,12.5,-48.5,3.1875,8.28125,-6.59375,74.40625,-27.875,-25.21875,93666.5,8.310813738738307,7.243162724252352,14.853397128266648,170.1182799309547,109.89113931523323,154.38316780011996,103.43450020826384,68.51541797289133,193.31632109058975,30.585619876490433,74.1131321962059,21.43638503842532,11.842130358693561,7.193800454138156,3.0617771255704858,13.884006086140989,4850.0,7200.0,800.0,-960.0,42.0,539.0,-286.0,14.0,-209.0,-42.5,-130.5,-44.375,49.9375,-45.3125,-25.4375,93666.5,4854.5,7212.3,810.6,-328.0,459.0,978.0,93.0,65.0,609.0,43.875,147.1875,28.3125,86.5,-23.0,-19.9375,93669.75,4825.45,7190.5,757.1,-960.0,42.0,539.0,-286.0,-192.0,-209.0,-42.5,-130.5,-44.375,49.9375,-45.3125,-28.75,93637.25,LivingRoom ,EATING,0,0,0
4850.59375,7191.815625,767.76875,-606.375,334.1875,663.8125,-15.875,-17.25,-28.1875,4.1953125,24.3359375,4.8203125,95.11328125,-37.578125,-27.078125,93648.84375,4849.65,7193.85,761.6500000000001,-608.5,328.0,674.5,0.0,-8.5,-32.0,10.25,21.15625,8.9375,95.40625,-36.34375,-26.21875,93647.25,6.625779828316954,6.722269427060998,19.043361704278993,122.7902683440345,65.7989044994925,148.9698934908214,121.11420230509715,43.46876273064755,103.91099957816465,31.081075725096238,56.016077839871116,26.43795680259413,4.508569314718916,3.9294892055668846,4.150395312497353,9.310332521809663,4850.0,7200.0,750.0,-832.0,227.0,391.0,41.0,-113.0,-160.0,-63.625,-111.5625,-41.3125,88.0625,-47.125,-35.25,93647.25,4860.5,7201.9,792.35,-384.0,452.0,925.0,160.0,56.0,183.0,50.5625,84.25,49.1875,101.4375,-31.625,-21.125,93659.0,4838.6,7178.65,737.75,-832.0,227.0,391.0,-355.0,-113.0,-160.0,-63.625,-111.5625,-41.3125,88.0625,-47.125,-35.25,93634.75,LivingRoom ,EATING,0,0,0
4802.621875,7232.2875,713.940625,-725.375,236.0,622.0625,-22.5,-17.0,-7.0,-12.18359375,-10.0546875,-10.67578125,111.859375,-46.59375,-22.3828125,93651.984375,4796.1,7234.0,711.625,-721.0,260.5,572.5,-21.5,-5.0,0.5,-20.875,-15.53125,-3.65625,111.9375,-45.59375,-21.96875,93653.0,26.223443511166384,9.914223788745877,14.521125056849627,143.5794205309382,125.81944735744682,202.35561725174156,117.31325585798052,90.50966799187809,170.28251035656402,44.87583256394573,56.11515724290393,23.774288224865078,3.0328496638200404,4.144587333700023,4.931609091277072,13.598550397622045,4800.0,7250.0,700.0,-984.0,11.0,284.0,-230.0,47.0,111.0,-84.9375,-128.5,-60.125,110.9375,-54.125,-21.5,93653.0,4848.95,7250.15,734.3,-499.0,445.0,970.0,193.0,138.0,269.0,70.25,119.25,17.8125,115.8125,-41.0,-14.25,93668.0,4770.5,7216.9,695.95,-984.0,11.0,284.0,-230.0,-193.0,-276.0,-84.9375,-128.5,-60.125,104.125,-54.125,-33.4375,93634.75,LivingRoom ,EATING,0,0,0
4754.955882352941,7205.941176470588,796.9676470588236,-313.5882352941176,-127.6470588235294,891.0,-46.294117647058826,-3.0588235294117645,-40.76470588235294,-25.158088235294116,-27.764705882352942,9.676470588235293,108.26838235294117,-16.511029411764707,6.886029411764706,93664.64705882352,4753.05,7200.45,793.3,-335.0,-179.0,835.0,-84.0,7.0,-63.0,-33.5625,-11.125,8.8125,107.1875,-14.25,7.0,93664.25,6.242792903444251,20.137319484713213,62.51312347513638,230.83843343980044,159.1971816555143,142.44297104455524,160.90399494181398,89.0656152705937,145.90301976474163,28.045618161663917,89.23937078198354,13.229093088802646,4.0728093173255875,8.037395365708091,7.775670542770307,1.8646774677738587,4750.0,7200.0,750.0,-839.0,-333.0,625.0,-304.0,-53.0,-93.0,-61.4375,-218.8125,-13.625,104.75,-41.875,4.0625,93664.25,4768.9,7243.7,889.2,218.0,169.0,1109.0,341.0,129.0,148.0,23.6875,100.5625,38.5625,116.0625,-7.1875,15.9375,93668.0,4745.5,7184.6,712.05,-839.0,-333.0,625.0,-304.0,-190.0,-306.0,-61.4375,-218.8125,-13.625,104.4375,-41.875,-8.3125,93662.0,LivingRoom ,EATING,1,0,0
4760.336666666667,7163.650000000001,959.6200000000001,-221.13333333333333,-311.53333333333336,911.1333333333333,-5.133333333333334,-9.666666666666666,7.2,-5.2375,-6.808333333333334,3.1041666666666665,102.02916666666667,-13.570833333333333,18.004166666666666,93659.93333333333,4763.05,7165.35,970.0,-237.0,-320.0,930.0,-26.0,-5.0,6.0,-1.5625,-15.3125,3.875,102.5,-14.3125,18.0,93662.0,7.153132846788846,12.476663931401758,22.609012109586487,142.02508162125383,49.70752553927921,97.25582367187704,91.93620976887543,38.766087290433674,96.50699456516092,15.905293087971868,31.589896761163253,5.878782343754367,1.5361831371787613,3.3691141357222985,0.9497610915132189,6.4783062895291055,4750.0,7150.0,950.0,-448.0,-282.0,765.0,-172.0,-83.0,-128.0,-42.75,-49.25,-11.25,103.125,-14.25,17.0,93653.0,4768.7,7185.75,979.1,114.0,-212.0,1133.0,192.0,64.0,225.0,15.75,60.0,14.1875,103.625,-6.5,19.8125,93666.75,4746.5,7140.25,907.6,-448.0,-387.0,765.0,-172.0,-83.0,-128.0,-42.75,-49.25,-11.25,98.625,-18.125,16.375,93653.0,LivingRoom ,EATING,0,0,0
4759.825000000001,7123.29375,937.753125,-250.0,-297.625,907.1875,54.375,11.1875,11.75,2.125,27.171875,-1.03515625,102.3515625,-16.4375,19.25,93657.203125,4759.4,7121.6,925.0250000000001,-218.0,-286.0,883.0,30.5,9.5,-26.5,10.8125,33.25,-0.0625,102.5,-15.8125,18.8125,93656.5,6.9570827219459925,5.06990713261436,25.396505460069363,227.3197454394727,81.82491470613743,204.9368093665297,212.90651313037216,56.12749623253591,162.85187543695446,22.882569330533375,104.08445964496013,12.243811548041661,1.8091024190188902,8.668729722398778,2.2593555497088103,9.180694758568112,4750.0,7100.0,900.0,41.0,-469.0,556.0,-248.0,-21.0,-228.0,-46.3125,-132.75,-25.875,102.125,-31.1875,15.5625,93647.75,4771.05,7135.6,973.8,41.0,-142.0,1313.0,452.0,101.0,279.0,28.1875,219.5,19.75,105.8125,-3.4375,22.4375,93669.25,4745.3,7118.15,906.4,-722.0,-469.0,556.0,-248.0,-78.0,-228.0,-46.3125,-132.75,-25.875,99.1875,-31.1875,15.5625,93647.75,LivingRoom ,EATING,0,0,0
4727.18125,7140.740625,844.290625,-800.9375,-23.0,415.375,-12.0,-18.125,-79.9375,24.05859375,3.25,16.91015625,106.59375,-57.70703125,2.37109375,93665.734375,4727.375,7142.85,834.5999999999999,-754.0,-14.0,416.5,6.0,9.5,-67.5,21.9375,-6.96875,21.5,105.4375,-54.625,-0.125,93661.0,7.458348230897655,11.22380236743912,29.481249514168614,223.50405477306222,192.15028840294082,233.74740640272353,147.23314844151096,76.57665005295893,152.8561278893762,24.001730284307108,120.04772922328297,17.56434552506749,2.340316930104411,16.200062994186936,13.7025786189057,13.746050569163494,4750.0,7150.0,850.0,-1185.0,-65.0,-26.0,-265.0,10.0,-342.0,-24.1875,-167.75,-10.6875,104.1875,-84.4375,-14.375,93651.5,4739.8,7156.25,904.4,-472.0,196.0,796.0,173.0,77.0,282.0,55.75,204.5,45.0,110.6875,-37.0625,22.125,93681.75,4714.9,7124.95,796.25,-1185.0,-432.0,-26.0,-265.0,-187.0,-342.0,-24.1875,-167.75,-10.6875,104.1875,-84.4375,-14.375,93651.5,LivingRoom ,EATING,0,0,0
4691.909375,7210.371875000001,737.078125,-916.875,105.875,311.125,-28.0625,-19.0625,-22.875,2.6015625,26.5,5.546875,109.14453125,-67.765625,-22.48046875,93665.921875,4693.0,7208.825000000001,729.0,-924.5,82.5,253.5,10.5,-12.0,-44.0,9.5,10.65625,1.71875,109.28125,-72.0,-20.3125,93661.0,15.829373737348677,37.367704276777175,19.964927320595645,121.41986383344916,92.78568495912143,207.82937713422518,106.39703551634635,59.06207892266126,87.72447397011472,16.888387822085523,75.04320630476819,12.774231467424306,1.167645143993528,10.326606513435735,9.4646469039064,18.552564681197044,4700.0,7200.0,750.0,-1125.0,-65.0,135.0,-234.0,-173.0,-104.0,-33.3125,-81.1875,-10.625,108.75,-76.8125,-38.0,93647.0,4714.05,7292.3,785.0,-663.0,257.0,963.0,115.0,56.0,246.0,20.375,170.9375,28.5625,110.4375,-42.3125,-8.5,93688.0,4653.05,7150.95,716.8,-1125.0,-65.0,135.0,-234.0,-173.0,-104.0,-33.3125,-81.1875,-10.625,107.1875,-76.8125,-38.0,93647.0,LivingRoom ,EATING,0,0,0
4627.059375000001,7318.128125,698.709375,-915.75,169.75,260.875,-15.3125,-10.5625,-6.25,-1.66015625,23.7421875,14.75,105.39453125,-68.34375,-38.7734375,93650.234375,4626.0,7317.5,697.5,-952.5,130.5,190.0,-34.5,-15.0,-8.5,2.40625,20.4375,10.71875,106.8125,-71.25,-27.71875,93660.0,7.055924667729008,10.752968098002798,10.91349651807339,115.67511976796624,127.72078922399439,212.18824189855573,69.31927942499114,47.68922834351589,56.413355392731845,20.33076702661818,50.680164774421364,25.479086603853496,4.420579168196365,8.81026863003242,25.434166192266524,14.205476863402604,4600.0,7300.0,700.0,-1018.0,33.0,61.0,-44.0,45.0,-53.0,-46.25,-88.6875,-14.625,92.6875,-77.9375,-80.9375,93632.5,4642.5,7335.85,716.8,-555.0,435.0,678.0,226.0,52.0,123.0,25.0,114.0,55.0625,109.0625,-52.375,-13.4375,93661.75,4618.4,7302.0,682.95,-1018.0,33.0,61.0,-78.0,-90.0,-120.0,-46.25,-88.6875,-14.625,92.6875,-77.9375,-80.9375,93632.5,LivingRoom ,EATING,0,0,0
4627.765625,7284.61875,736.4093750000001,-784.625,577.8125,-22.625,-24.5625,-29.8125,-47.8125,-11.3046875,18.4375,18.5390625,64.94140625,-51.70703125,-86.7890625,93659.609375,4631.625,7284.5,727.025,-777.0,615.5,-33.0,-27.5,-16.5,-41.0,-7.625,18.15625,8.625,61.46875,-49.5625,-85.21875,93657.25,11.959706222005048,22.48631342987708,40.44604726772856,54.803740748237246,86.68580718126046,48.501374550968485,33.158143796057104,43.05224539246859,40.22141842352156,12.517734814886971,8.344128424626904,20.72923000409084,10.905643339144417,5.054377163966397,4.175316542391327,7.689261315843892,4650.0,7300.0,700.0,-775.0,423.0,-44.0,-99.0,-146.0,-57.0,-29.3125,3.375,-4.875,52.625,-64.1875,-95.75,93667.75,4641.4,7320.7,798.05,-706.0,666.0,54.0,17.0,11.0,11.0,3.9375,35.9375,53.375,88.875,-47.3125,-81.8125,93667.75,4605.25,7248.9,695.1,-914.0,423.0,-80.0,-99.0,-146.0,-115.0,-29.3125,3.375,-4.875,52.625,-64.1875,-95.75,93651.75,LivingRoom ,EATING,0,0,0
4632.290625,7274.196875,797.5,-642.0625,634.3125,84.1875,-29.8125,-17.25,-68.625,16.265625,-75.8046875,12.625,70.390625,-39.69921875,-80.09375,93648.875,4633.674999999999,7285.2,799.8499999999999,-733.0,631.5,-62.0,-39.0,-7.5,-63.0,16.4375,-36.9375,7.34375,71.625,-47.5625,-88.875,93654.5,21.1659885882202,33.230896611186,16.370725905306305,253.28362725082198,45.117208468609846,368.3629041674347,94.91836404686573,36.23902132600529,94.77191918847412,27.3156367382616,94.38220136707892,20.77218944085256,13.894383982386554,13.757369592293374,24.489878861820994,17.321951391226104,4650.0,7300.0,800.0,-905.0,605.0,-395.0,-119.0,-92.0,-199.0,-31.25,-256.875,-11.625,52.1875,-47.4375,-108.5,93628.0,4663.25,7313.55,819.35,-169.0,708.0,728.0,193.0,31.0,119.0,65.25,18.4375,44.0625,87.0,-14.875,-47.6875,93666.0,4595.75,7211.8,771.85,-905.0,548.0,-395.0,-131.0,-92.0,-199.0,-31.25,-256.875,-11.625,52.1875,-52.5,-108.5,93628.0,LivingRoom ,EATING,0,0,1
