MEAN_POS_X,MEAN_POS_Y,MEAN_POS_Z,MEAN_ACC_X,MEAN_ACC_Y,MEAN_ACC_Z,MEAN_LINACC_X,MEAN_LINACC_Y,MEAN_LINACC_Z,MEAN_GYRO_X,MEAN_GYRO_Y,MEAN_GYRO_Z,MEAN_Heading,MEAN_Roll,MEAN_Pitch,MEAN_Pressure,MEDIAN_POS_X,MEDIAN_POS_Y,MEDIAN_POS_Z,MEDIAN_ACC_X,MEDIAN_ACC_Y,MEDIAN_ACC_Z,MEDIAN_LINACC_X,MEDIAN_LINACC_Y,MEDIAN_LINACC_Z,MEDIAN_GYRO_X,MEDIAN_GYRO_Y,MEDIAN_GYRO_Z,MEDIAN_Heading,MEDIAN_Roll,MEDIAN_Pitch,MEDIAN_Pressure,STD_POS_X,STD_POS_Y,STD_POS_Z,STD_ACC_X,STD_ACC_Y,STD_ACC_Z,STD_LINACC_X,STD_LINACC_Y,STD_LINACC_Z,STD_GYRO_X,STD_GYRO_Y,STD_GYRO_Z,STD_Heading,STD_Roll,STD_Pitch,STD_Pressure,MODE_POS_X,MODE_POS_Y,MODE_POS_Z,MODE_ACC_X,MODE_ACC_Y,MODE_ACC_Z,MODE_LINACC_X,MODE_LINACC_Y,MODE_LINACC_Z,MODE_GYRO_X,MODE_GYRO_Y,MODE_GYRO_Z,MODE_Heading,MODE_Roll,MODE_Pitch,MODE_Pressure,MAX_POS_X,MAX_POS_Y,MAX_POS_Z,MAX_ACC_X,MAX_ACC_Y,MAX_ACC_Z,MAX_LINACC_X,MAX_LINACC_Y,MAX_LINACC_Z,MAX_GYRO_X,MAX_GYRO_Y,MAX_GYRO_Z,MAX_Heading,MAX_Roll,MAX_Pitch,MAX_Pressure,MIN_POS_X,MIN_POS_Y,MIN_POS_Z,MIN_ACC_X,MIN_ACC_Y,MIN_ACC_Z,MIN_LINACC_X,MIN_LINACC_Y,MIN_LINACC_Z,MIN_GYRO_X,MIN_GYRO_Y,MIN_GYRO_Z,MIN_Heading,MIN_Roll,MIN_Pitch,MIN_Pressure,LOCATION,ACTIVITY,Peaks_Acc_X,Peaks_Acc_Y,Peaks_Acc_Z
4762.01875,7225.776041666667,705.7479166666666,-861.25,295.2708333333333,139.1875,-6.354166666666667,-16.4375,1.3958333333333333,0.2825520833333333,5.48828125,2.2916666666666665,265.5911458333333,-61.2109375,-63.033854166666664,93655.73958333333,4756.424999999999,7226.125,709.95,-845.5,278.5,170.0,1.0,-28.5,2.5,0.40625,24.1875,0.5,335.59375,-60.78125,-48.09375,93655.25,49.16348067871932,22.088448867223132,21.941372458317417,138.9750475077711,148.46501695303596,321.3754784334017,120.28432443869717,48.903250664264796,91.65122129709036,20.28682292619322,77.09330560209867,24.504888967986233,136.4430751596851,8.028225069877301,40.871341820030445,9.908887899111743,4700.0,7250.0,700.0,-873.0,160.0,-143.0,82.0,-41.0,-174.0,-43.125,-228.9375,-36.9375,346.625,-64.25,-14.0,93660.75,4837.8,7262.85,757.2,-557.0,527.0,726.0,267.0,99.0,267.0,38.5625,102.875,52.9375,356.5625,-49.625,-14.0,93674.75,4697.05,7186.15,650.4,-1199.0,-21.0,-496.0,-364.0,-133.0,-174.0,-43.125,-228.9375,-36.9375,4.5,-76.25,-129.0,93642.0,LivingRoom ,EATING,0,0,2
4755.040625000001,7237.557291666667,704.4385416666668,-770.75,328.125,236.14583333333334,-16.291666666666668,-23.5625,-0.8333333333333334,-2.7265625,-16.298177083333332,4.171875,159.89192708333334,-53.544270833333336,-63.6015625,93652.671875,4740.85,7242.375,708.3,-808.5,371.5,264.0,-15.5,-28.5,15.0,-0.46875,18.9375,0.8125,34.375,-55.28125,-45.1875,93649.375,46.85980863766419,26.797981405368663,26.602605934548315,202.49071426043747,154.0507825913951,442.4606240243947,105.29188575419171,99.50214501055808,113.36165686962656,23.51345891540042,75.692356411197,25.862227356830328,152.64962452933418,14.671689421046297,40.04786577781284,8.31177008473462,4700.0,7250.0,700.0,-884.0,61.0,-143.0,82.0,-79.0,-22.0,-63.4375,-86.6875,-36.9375,32.4375,-75.875,-129.0,93650.0,4828.25,7287.5,781.9,-309.0,527.0,1261.0,205.0,169.0,309.0,38.6875,91.375,52.9375,356.5625,-27.3125,-13.1875,93674.75,4697.05,7186.15,648.65,-1188.0,-119.0,-496.0,-364.0,-315.0,-297.0,-63.4375,-228.9375,-36.9375,4.5,-75.875,-129.0,93643.75,LivingRoom ,EATING,0,0,3
4775.555208333333,7224.006249999999,745.234375,-669.4375,252.375,526.1875,-19.354166666666668,-24.6875,-23.291666666666668,2.15625,-25.305989583333332,-3.3255208333333335,60.938802083333336,-44.4296875,-35.423177083333336,93655.375,4776.6,7223.9,722.975,-628.5,278.5,547.0,8.5,-6.0,-46.5,5.46875,-8.6875,0.5,31.09375,-36.21875,-20.0,93653.0,64.35885698407094,28.055825095842604,62.93662901634857,215.3432595065228,177.90406511088702,422.7377667241166,113.33597006215228,137.68065984641663,172.82360436858838,31.243379617877586,72.5899263913015,19.217747047577227,96.69507612905433,15.200267841503894,31.464662294945988,10.158582997182151,4700.0,7200.0,700.0,-1188.0,61.0,551.0,-131.0,-36.0,60.0,-65.875,-86.6875,-34.0,29.6875,-30.625,-19.3125,93650.0,4875.0,7287.5,842.3,-309.0,470.0,1278.0,205.0,176.0,447.0,60.375,91.375,51.625,356.5625,-27.3125,-12.4375,93677.25,4697.05,7186.15,648.65,-1188.0,-209.0,-496.0,-364.0,-393.0,-360.0,-65.875,-228.9375,-36.9375,4.5,-70.0,-129.0,93643.75,LivingRoom ,EATING,1,0,5
4801.578571428571,7212.579591836735,770.8663265306122,-606.4489795918367,222.9387755102041,699.9591836734694,-19.693877551020407,-29.183673469387756,-28.857142857142858,2.1747448979591835,-4.886479591836735,1.6096938775510203,33.93112244897959,-38.16836734693877,-20.478316326530614,93656.0663265306,4816.1,7208.45,781.9,-592.0,254.0,663.0,-6.0,-13.0,-50.0,4.9375,1.3125,1.875,32.625,-35.0625,-19.0,93653.0,49.42662596381293,39.479682166863974,55.40943002977461,181.91447867341512,171.69248286826476,253.35383353323547,115.5330407433361,140.21154753166547,193.2293542227302,36.11962902418885,58.49140043389562,19.305135000935287,3.816878566985141,9.86856333672713,6.409889096230752,10.497863809262489,4800.0,7200.0,800.0,-1096.0,61.0,284.0,-131.0,41.0,-13.0,-65.875,-151.0,0.1875,29.6875,-43.25,-22.3125,93653.0,4875.0,7287.5,842.3,-247.0,470.0,1278.0,314.0,176.0,447.0,60.375,165.1875,51.625,41.1875,-27.3125,-12.4375,93677.25,4695.0,7138.05,648.65,-1096.0,-209.0,284.0,-272.0,-393.0,-360.0,-65.875,-151.0,-34.0,27.1875,-68.5,-42.5625,93643.75,LivingRoom ,EATING,0,0,2
4779.489795918367,7220.339795918368,784.9693877551022,-631.0408163265306,228.89795918367346,669.1224489795918,-22.183673469387756,-27.775510204081634,-43.6530612244898,1.3112244897959184,2.9681122448979593,-1.0752551020408163,35.40688775510204,-39.52040816326531,-20.381377551020407,93657.60714285714,4793.5,7208.45,778.8,-626.0,256.0,642.0,-6.0,16.0,-70.0,8.125,8.3125,1.5,36.125,-39.375,-19.375,93653.0,66.04752706352818,48.22428284803705,35.085621188753095,159.09849663856997,156.92557218019513,268.93746428096915,115.60685415619247,123.93517547931432,237.4989957014212,43.66816470113235,60.673146048645464,16.623942535642946,3.896344157595716,6.900525386605137,4.708395180121766,9.133985302155901,4700.0,7200.0,750.0,-730.0,328.0,17.0,-131.0,41.0,-13.0,46.625,-152.625,1.25,29.6875,-45.0,-22.3125,93653.0,4875.0,7303.4,842.3,-247.0,472.0,1286.0,314.0,176.0,568.0,61.1875,165.1875,41.25,41.1875,-29.0625,-12.4375,93677.25,4684.65,7138.05,733.1,-945.0,-209.0,17.0,-272.0,-393.0,-495.0,-93.375,-152.625,-34.0,28.8125,-54.8125,-32.0625,93649.25,LivingRoom ,EATING,0,0,4
4745.173469387755,7218.309183673468,768.261224489796,-662.7551020408164,229.57142857142858,637.734693877551,-26.448979591836736,-29.918367346938776,-29.122448979591837,-2.4591836734693877,6.350765306122449,-2.7691326530612246,38.255102040816325,-42.75765306122449,-21.278061224489797,93649.89285714286,4745.05,7206.75,768.2,-686.0,240.0,602.0,-12.0,-23.0,-69.0,4.3125,10.3125,0.0,38.375,-41.3125,-21.4375,93650.75,43.400403346389005,50.44895592067681,19.635634765294824,191.08893333256344,126.71440986196743,257.74404095198497,140.26419435368055,90.06313450729388,222.64289724551634,42.80788553108696,72.39784448981818,21.254067487869506,2.577725244724002,6.03529161664614,4.5269387037404725,11.265614164349852,4700.0,7200.0,750.0,-730.0,167.0,703.0,-115.0,41.0,-13.0,-93.375,-152.625,-58.375,33.5625,-45.0,-25.4375,93649.25,4837.95,7303.4,823.35,-161.0,472.0,1286.0,314.0,150.0,568.0,61.1875,165.1875,41.25,43.375,-29.0625,-12.125,93666.0,4684.65,7138.05,733.1,-1116.0,-26.0,17.0,-272.0,-252.0,-495.0,-93.375,-152.625,-58.375,33.0625,-56.625,-32.0625,93626.25,LivingRoom ,EATING,1,0,3
4730.001041666666,7214.431249999999,780.125,-527.4791666666666,97.66666666666667,701.6458333333334,-37.25,-28.854166666666668,-41.895833333333336,-13.516927083333334,-15.716145833333334,-1.2591145833333333,38.7734375,-34.009114583333336,-11.93359375,93643.38020833333,4738.125,7195.299999999999,770.75,-587.5,135.5,727.5,-14.5,-26.5,-69.5,-9.71875,-5.78125,1.84375,38.28125,-39.59375,-17.40625,93645.625,21.646442117323826,52.890642522939395,35.36007786166454,330.7805076445537,232.8690923768055,284.7887227016094,156.9872606296447,96.45988904739349,224.6528517781529,43.44423879991621,84.00570775782543,20.036017226495414,2.8249171812846163,17.461065111013685,14.984313641078641,9.294672115944048,4750.0,7150.0,750.0,-730.0,330.0,738.0,-221.0,-134.0,-136.0,-94.6875,-272.5,-58.375,37.6875,-41.0,-25.4375,93649.25,4756.5,7303.4,868.7,298.0,472.0,1286.0,274.0,150.0,568.0,61.1875,163.75,43.125,44.625,-1.1875,17.6875,93661.0,4684.65,7151.2,733.1,-1116.0,-411.0,17.0,-411.0,-252.0,-526.0,-94.6875,-272.5,-58.375,33.0625,-56.625,-32.0625,93626.25,LivingRoom ,EATING,3,1,3
4741.953125,7176.357291666667,836.5479166666668,-367.9583333333333,-112.97916666666667,786.25,-35.354166666666664,-26.5,-40.958333333333336,-9.7109375,-6.484375,-0.8697916666666666,38.59765625,-24.434895833333332,2.9427083333333335,93643.33333333333,4743.95,7167.799999999999,820.05,-361.5,-171.5,793.5,-22.0,-24.0,-39.5,-7.3125,-1.0625,1.3125,37.78125,-25.96875,9.125,93639.875,10.964213578196006,27.319076005338488,66.02400672219524,366.964254641235,271.76785224559654,217.96344608623536,207.71302723805545,82.45927428066304,165.50168197812567,35.085452354523554,96.5270884597477,20.469456331541032,2.733233044217536,18.69348289951475,18.046928488837253,11.420322187453744,4750.0,7150.0,750.0,-161.0,-525.0,738.0,-221.0,-134.0,-136.0,-94.6875,-272.5,2.25,37.5,-29.4375,-25.4375,93626.25,4756.5,7261.25,943.75,368.0,370.0,1216.0,419.0,131.0,438.0,49.875,284.5,43.125,44.625,-1.1875,25.5,93666.25,4714.85,7145.6,766.6,-1116.0,-525.0,338.0,-745.0,-182.0,-526.0,-94.6875,-272.5,-58.375,34.6875,-56.625,-25.4375,93626.25,LivingRoom ,EATING,7,0,0
4737.372916666666,7151.810416666667,883.109375,-268.3333333333333,-300.3958333333333,836.375,-23.75,-23.875,-48.166666666666664,-9.078125,-10.48046875,3.390625,37.630208333333336,-16.729166666666668,16.794270833333332,93647.13541666667,4740.950000000001,7154.775,905.625,-175.0,-329.0,841.5,-22.5,-4.5,-37.0,-9.40625,-5.78125,2.375,37.46875,-11.90625,18.78125,93648.25,12.199860298874617,20.944838795348147,53.83294950857283,318.70391336970295,175.76746480619548,194.8285252608538,202.00626701885668,88.55978266901393,166.96774224488576,31.42246690183329,99.97322959180103,18.190419813883327,2.4567344391712203,14.508310699181061,9.558226850249648,11.288522500674167,4750.0,7150.0,900.0,-112.0,-356.0,376.0,-221.0,-244.0,-73.0,-14.875,-272.5,2.25,37.5,-29.4375,-11.6875,93637.25,4756.05,7191.1,943.75,368.0,154.0,1247.0,419.0,131.0,380.0,50.0625,284.5,59.125,44.625,-1.1875,28.1875,93666.25,4714.85,7109.95,766.85,-985.0,-673.0,376.0,-745.0,-244.0,-526.0,-94.6875,-272.5,-23.9375,34.625,-52.9375,-11.6875,93635.25,LivingRoom ,EATING,5,0,0
4727.407291666667,7130.95625,912.8177083333334,-325.9166666666667,-363.7291666666667,805.1875,2.5625,-32.333333333333336,-26.854166666666668,-0.036458333333333336,9.98828125,4.10546875,36.807291666666664,-20.819010416666668,22.22265625,93657.171875,4722.725,7122.1,915.6,-265.5,-357.0,841.5,10.5,-4.5,-31.5,-5.75,-3.8125,3.90625,37.0,-17.8125,22.21875,93659.125,14.958744648032347,31.450480537884225,22.019260161067624,348.5631194302552,113.21561797067694,230.20856928520368,216.4526292090012,89.36878729088792,161.8998888968819,25.28030633753285,105.89906582996177,18.257700012570112,1.2172459577387003,16.22420845805165,4.315493993266304,15.441305844934504,4700.0,7100.0,900.0,-63.0,-358.0,305.0,-745.0,-4.0,-73.0,-14.875,-216.375,-20.75,37.875,-60.9375,22.0625,93637.25,4753.55,7191.1,944.9,368.0,-179.0,1247.0,492.0,89.0,380.0,50.0625,284.5,59.125,38.6875,-1.25,33.75,93684.25,4704.7,7082.9,865.6,-1153.0,-673.0,305.0,-745.0,-296.0,-434.0,-38.625,-216.375,-30.5,34.625,-60.9375,15.8125,93637.25,LivingRoom ,EATING,3,0,1
4728.983333333334,7113.594791666666,897.1312499999999,-339.9791666666667,-253.54166666666666,814.8958333333334,14.458333333333334,-29.8125,-28.3125,6.3125,-0.7981770833333334,1.66796875,37.790364583333336,-21.125,15.873697916666666,93662.97916666667,4720.225,7113.725,901.75,-284.5,-264.5,862.5,19.5,-2.0,-38.0,11.9375,-10.875,1.71875,37.65625,-15.6875,18.59375,93664.25,20.28526698709162,22.219126894540086,32.23016893988638,339.9806934182633,198.52841142225452,245.42713435995998,208.54623022688273,99.05804364431138,174.73653800154665,27.557115494218586,97.34278722465667,17.87670240112433,1.9279961478607213,14.846824289704573,11.181176074165228,15.814906223726029,4700.0,7100.0,900.0,-1153.0,-358.0,874.0,24.0,-337.0,13.0,18.0,-216.375,-20.75,37.75,-11.125,22.0625,93684.25,4782.75,7158.45,960.95,472.0,202.0,1349.0,609.0,128.0,380.0,57.5625,188.625,59.125,43.125,-4.5,33.75,93684.25,4704.7,7082.9,844.35,-1153.0,-673.0,305.0,-527.0,-337.0,-434.0,-38.625,-216.375,-33.375,34.625,-60.9375,-5.0625,93637.25,LivingRoom ,EATING,2,0,2
4747.659375,7135.032291666666,931.625,-291.6875,-165.75,865.3958333333334,15.270833333333334,-39.3125,-14.479166666666666,1.8151041666666667,-7.494791666666667,2.0729166666666665,38.8828125,-18.455729166666668,9.30859375,93664.02604166667,4743.375,7115.25,918.0250000000001,-192.5,-192.0,898.0,3.0,-15.0,-4.5,10.8125,-16.9375,3.5,38.53125,-13.0,5.875,93662.125,34.379019542555966,46.65588773771194,67.87356675341134,350.0187931884607,192.67429246976207,271.78298128918914,232.2911543899195,109.93385946762176,209.52418126665233,33.00143542960594,87.3832863629766,15.360740518958718,2.168079637642394,14.984971185327273,11.171061754361013,14.011416278374094,4700.0,7100.0,850.0,-213.0,-358.0,1067.0,-28.0,-74.0,-222.0,-73.375,-63.25,-33.375,35.6875,-11.125,3.875,93684.25,4802.65,7214.45,1039.6,472.0,265.0,1515.0,735.0,160.0,776.0,57.5625,174.75,38.125,43.125,-3.4375,33.75,93684.25,4704.7,7082.9,844.35,-1153.0,-617.0,305.0,-527.0,-337.0,-561.0,-73.375,-216.375,-33.375,34.6875,-60.9375,-5.0625,93637.25,LivingRoom ,EATING,3,0,3
4767.3926829268285,7167.114634146342,946.490243902439,-217.73170731707316,-79.1219512195122,936.560975609756,0.04878048780487805,-40.8780487804878,-13.024390243902438,2.2713414634146343,-10.201219512195122,-0.9253048780487805,39.25457317073171,-13.153963414634147,2.2652439024390243,93661.88414634146,4773.5,7191.3,953.6,-187.0,-57.0,930.0,-10.0,-24.0,8.0,11.4375,0.9375,0.125,39.375,-11.125,1.5,93660.0,25.29174905224923,49.07901950414049,68.94393666189234,250.4444074430735,153.16530206315517,213.5928426680641,208.40464860692433,106.62579310887944,212.77999057769483,34.610493378533164,60.059317215675286,12.827515740040065,2.4011467899760306,7.164557099352202,4.907996912083828,12.402129046177869,4800.0,7200.0,850.0,-265.0,-184.0,874.0,-11.0,-74.0,-222.0,-73.375,-63.25,-7.9375,35.6875,-10.125,1.625,93644.25,4802.65,7230.85,1039.6,472.0,265.0,1515.0,735.0,160.0,776.0,57.5625,135.875,30.0625,43.125,-3.4375,15.3125,93684.25,4713.05,7085.6,844.35,-912.0,-395.0,459.0,-527.0,-337.0,-561.0,-73.375,-161.75,-33.375,34.625,-33.25,-5.0625,93644.25,LivingRoom ,EATING,2,0,1
4784.530487804878,7203.789024390245,929.3487804878048,-419.2439024390244,-65.3170731707317,751.3170731707318,5.097560975609756,-45.90243902439025,-5.585365853658536,-1.1768292682926829,28.492378048780488,4.4435975609756095,40.82164634146341,-29.859756097560975,-0.009146341463414634,93657.35975609756,4788.4,7207.1,952.6,-265.0,-65.0,890.0,-11.0,-36.0,10.0,0.25,13.625,5.3125,41.3125,-15.1875,1.625,93655.0,16.31185871555097,16.87734617836549,94.11531456662942,388.4819674378596,155.49781976355652,419.3810581693212,183.66719969527068,113.72352546374228,237.30054525956697,33.40211007567669,85.3374484985036,14.402492764370475,2.9544907878598607,28.335413535918693,7.11363623634557,9.760258830534383,4800.0,7200.0,950.0,-158.0,75.0,-466.0,-11.0,-24.0,-561.0,10.1875,-63.25,14.0,35.6875,-10.125,1.625,93649.25,4805.3,7230.85,1039.6,436.0,393.0,1515.0,735.0,316.0,776.0,62.25,280.25,39.4375,44.875,-3.4375,7.875,93676.75,4743.75,7152.6,736.85,-1316.0,-395.0,-466.0,-383.0,-285.0,-561.0,-73.375,-139.0,-29.875,34.625,-83.6875,-30.0625,93644.25,LivingRoom ,EATING,3,0,2
4751.865853658536,7199.869512195121,800.4743902439026,-687.390243902439,121.0,320.9268292682927,-3.658536585365854,-34.36585365853659,-26.804878048780488,0.35365853658536583,41.986280487804876,12.847560975609756,67.61585365853658,-50.50914634146341,-42.27896341463415,93655.75609756098,4764.25,7197.4,795.35,-802.0,68.0,135.0,-11.0,-30.0,-32.0,-2.6875,25.375,11.5,42.375,-56.75,-8.125,93655.0,43.771421097310196,16.576979060012608,111.52098015729553,347.606809344177,241.52598203920007,505.24278274132246,122.853491964229,87.23839639102755,169.53100299240182,27.95975626960092,73.93099019339326,20.678548142397208,96.75382195391843,27.065814465678816,51.83705520660272,12.625184132924314,4800.0,7200.0,700.0,-932.0,75.0,-466.0,-340.0,-24.0,-76.0,-44.75,-139.0,14.0,42.375,-51.875,-103.0,93646.0,4805.3,7230.85,981.8,-90.0,520.0,1173.0,333.0,316.0,456.0,62.25,280.25,46.625,358.125,-6.125,7.0,93676.75,4685.65,7163.8,660.35,-1316.0,-332.0,-466.0,-340.0,-206.0,-521.0,-44.75,-139.0,-29.875,1.6875,-83.6875,-113.75,93634.5,LivingRoom ,EATING,4,0,4
4735.374468085106,7198.699999999998,746.0287234042553,-799.8936170212766,225.40425531914894,206.85106382978722,-15.46808510638298,-27.21276595744681,-45.170212765957444,4.404255319148936,6.535904255319149,6.367021276595745,64.25930851063829,-56.96010638297872,-53.05186170212766,93649.09042553192,4724.3,7197.4,726.1,-840.0,268.0,-5.0,-21.0,-24.0,-40.0,6.0625,8.6875,5.3125,43.1875,-57.8125,-30.0625,93646.0,42.323834214845185,13.643528486620207,74.8646712006875,236.54894098285666,210.90742452703992,429.7276679946824,118.73442251399436,81.29707630718467,150.98132898516843,25.59704151826423,99.63978408991662,25.632188867744233,91.1683058019589,18.61129595747425,47.89382881093007,11.977835682671266,4700.0,7200.0,700.0,-932.0,75.0,481.0,-24.0,-24.0,-76.0,13.5625,-198.6875,14.0,42.375,-52.1875,-103.0,93634.5,4805.3,7221.0,929.8,-90.0,520.0,1006.0,333.0,316.0,456.0,62.25,280.25,46.625,358.125,-14.25,6.625,93676.75,4685.65,7163.8,660.35,-1316.0,-223.0,-466.0,-340.0,-206.0,-521.0,-44.75,-198.6875,-44.8125,0.4375,-83.6875,-118.1875,93634.5,LivingRoom ,EATING,2,0,5
4708.177659574468,7195.659574468086,743.4893617021277,-710.4042553191489,412.1276595744681,276.9148936170213,-45.8936170212766,-26.319148936170212,-47.61702127659574,1.9773936170212767,-12.367021276595745,10.215425531914894,61.21010638297872,-45.913563829787236,-65.24335106382979,93643.8085106383,4705.6,7196.0,726.1,-755.0,401.0,438.0,-32.0,-24.0,-47.0,6.0625,-0.5625,-0.875,35.0,-47.8125,-47.3125,93641.0,15.94389895754958,14.340603037081829,64.01587688270762,228.87035057604763,193.0955628496663,409.2964180356777,85.74462438279028,144.34651942054285,62.89796885899014,26.14561746756377,67.21283220244071,39.32463956936717,92.21174186195974,19.07628044839552,36.815095580144316,8.736824360572498,4700.0,7200.0,700.0,-777.0,258.0,550.0,-24.0,-22.0,-71.0,13.5625,-0.5625,-44.8125,26.25,-52.1875,-103.0,93634.5,4742.7,7221.0,857.05,-163.0,1452.0,802.0,138.0,734.0,103.0,56.3125,87.0,98.9375,358.125,-16.5,-20.25,93665.0,4675.4,7163.8,660.35,-1061.0,142.0,-433.0,-330.0,-294.0,-186.0,-45.6875,-198.6875,-44.8125,0.4375,-82.375,-118.1875,93634.5,LivingRoom ,EATING,2,1,2
4692.576595744681,7204.2914893617,775.8255319148934,-562.2553191489362,421.1914893617021,579.2127659574468,-47.57446808510638,-27.595744680851062,-38.255319148936174,3.856382978723404,-26.33909574468085,2.00531914893617,34.610372340425535,-32.52127659574468,-39.339095744680854,93649.87234042553,4704.15,7205.8,787.25,-545.0,379.0,641.0,-32.0,-28.0,-34.0,7.25,-21.875,-2.25,31.75,-29.375,-31.375,93645.0,28.975506618716565,16.512288965010757,47.816024092734885,206.60595429833663,184.94236920185287,321.0410332821629,92.35158356045639,146.502212414585,107.98721101515083,27.695276642733322,67.82252949359167,36.49630488151678,12.359380326676403,13.29717093432337,23.170532966285446,16.63465087162101,4700.0,7200.0,800.0,-557.0,258.0,550.0,-136.0,-33.0,-71.0,-53.6875,-198.6875,-44.8125,26.25,-35.5625,-32.875,93686.5,4730.1,7244.55,857.05,-163.0,1452.0,1026.0,138.0,734.0,258.0,56.3125,87.0,98.9375,55.25,-16.5,-20.25,93686.5,4642.55,7168.9,683.05,-969.0,227.0,-433.0,-330.0,-294.0,-331.0,-53.6875,-198.6875,-44.8125,0.4375,-65.625,-118.1875,93634.5,LivingRoom ,EATING,0,1,1
4674.019387755102,7210.930612244898,803.0357142857143,-429.2244897959184,498.7142857142857,670.530612244898,-44.55102040816327,-36.46938775510204,-34.857142857142854,2.5535714285714284,10.228316326530612,8.090561224489797,30.825255102040817,-22.934948979591837,-36.797193877551024,93655.6836734694,4663.25,7211.65,800.45,-461.0,468.0,668.0,-32.0,-34.0,-41.0,2.375,-0.5625,2.6875,28.875,-23.3125,-37.5625,93653.75,27.167598686069883,19.20096790183631,23.578309241051752,202.82630759943783,179.0061684225807,138.73837819808193,110.80708860155899,147.96791629167683,100.48673212585497,27.58059036430783,52.805823590290636,36.55875840280283,7.287852197122883,7.793152701814653,7.981174246453551,15.127821320043296,4650.0,7200.0,800.0,-163.0,661.0,610.0,-136.0,-171.0,-71.0,26.25,-81.5,-60.625,26.0,-28.9375,-42.8125,93686.5,4725.85,7244.55,857.05,-62.0,1452.0,1026.0,189.0,734.0,258.0,51.5625,158.375,98.9375,55.25,-9.5,-20.75,93686.5,4638.85,7168.9,754.5,-865.0,227.0,380.0,-330.0,-294.0,-331.0,-53.6875,-81.5,-60.625,23.0,-38.3125,-49.625,93639.25,LivingRoom ,EATING,0,1,0
4669.523958333333,7214.90625,790.5635416666668,-468.1875,500.6666666666667,640.4583333333334,-39.125,-40.083333333333336,-27.25,3.8723958333333335,-2.4075520833333335,0.8736979166666666,30.723958333333332,-26.05859375,-39.169270833333336,93660.35416666667,4662.7,7215.85,789.025,-486.0,519.5,640.5,-35.5,-34.5,-28.5,2.875,-10.46875,0.6875,30.0,-26.9375,-42.71875,93660.5,24.607415396763322,16.682889135087375,18.251731889794744,203.1675397353811,104.55199934662124,148.5404104817921,90.94810888984058,58.66958809618392,92.48404117652096,22.248785820076606,51.035642448490925,20.23502815972563,4.349294416771399,9.763888143418797,7.97318226063213,12.362201455351514,4650.0,7200.0,800.0,-865.0,557.0,429.0,2.0,-48.0,-80.0,2.375,-81.5,-0.25,28.4375,-23.3125,-42.8125,93686.5,4746.35,7244.55,829.85,-62.0,661.0,1026.0,189.0,110.0,258.0,51.5625,158.375,48.4375,42.9375,-9.5,-25.625,93686.5,4638.85,7178.1,754.5,-865.0,227.0,380.0,-248.0,-171.0,-331.0,-53.6875,-81.5,-60.625,23.0,-41.1875,-50.6875,93645.0,LivingRoom ,EATING,0,0,0
4685.359756097561,7211.208536585367,798.9073170731708,-489.2926829268293,542.9756097560976,587.390243902439,-43.26829268292683,-36.609756097560975,-41.58536585365854,5.3064024390243905,2.254573170731707,1.166158536585366,35.426829268292686,-27.166158536585368,-42.951219512195124,93658.5243902439,4678.5,7213.85,797.75,-554.0,546.0,581.0,-36.0,-35.0,-35.0,3.0,-9.1875,1.0625,30.8125,-31.9375,-43.0,93657.5,30.54687631230113,17.036053322435855,18.717573831080543,217.66203664195083,69.38785477476517,108.95615587216275,97.6644828968658,56.827316516258485,69.04635240537914,21.843583712162342,52.867586637225195,20.858969376936816,9.966485856114076,10.373207768356314,4.648620263111384,5.70137178614958,4650.0,7200.0,800.0,-865.0,546.0,429.0,-8.0,-48.0,-80.0,-67.5,-89.9375,-60.625,30.0,-33.75,-43.0,93651.75,4746.35,7242.55,832.4,-62.0,661.0,807.0,189.0,110.0,149.0,42.375,158.375,48.4375,56.5625,-9.5,-31.75,93672.0,4638.85,7178.1,764.5,-865.0,396.0,380.0,-248.0,-171.0,-265.0,-67.5,-89.9375,-60.625,23.0,-41.1875,-50.6875,93651.75,LivingRoom ,EATING,0,0,0
4699.8412499999995,7212.9425,825.1600000000001,-574.975,458.875,616.425,-33.825,-35.575,-23.275,1.984375,-6.3953125,-5.2796875,50.709375,-33.415625,-38.0890625,93661.9375,4696.049999999999,7214.65,812.7249999999999,-583.5,509.5,563.5,-32.0,-34.5,-25.5,4.0,-12.84375,-2.53125,50.0625,-33.375,-39.15625,93657.5,24.202216701559212,20.380739871072066,42.13125583161173,127.3359150295401,123.80820309594253,164.29084396355267,74.34530919970675,65.61890264714417,111.87699002670699,29.201351000259983,43.81633109804413,19.787113110618332,15.784268719913376,4.547768851034086,9.307103361237738,12.351392270737781,4700.0,7200.0,800.0,-632.0,319.0,429.0,-8.0,-139.0,-19.0,-67.5,-19.5,-61.0625,48.875,-40.5,-50.6875,93682.5,4746.35,7253.2,882.1,-206.0,655.0,1094.0,130.0,108.0,257.0,59.125,108.1875,23.6875,76.9375,-23.25,-18.8125,93682.5,4668.45,7178.1,764.5,-858.0,140.0,401.0,-236.0,-162.0,-265.0,-67.5,-89.9375,-61.0625,28.1875,-41.1875,-50.6875,93647.0,LivingRoom ,EATING,0,0,0
4735.943902439024,7213.230487804877,849.3207317073169,-578.0243902439024,333.780487804878,680.5365853658536,-15.24390243902439,-34.19512195121951,-17.463414634146343,-1.548780487804878,-1.0975609756097562,-3.721036585365854,68.41920731707317,-35.30335365853659,-27.652439024390244,93660.14634146342,4730.65,7212.0,860.75,-558.0,325.0,664.0,8.0,-25.0,-56.0,-1.6875,-13.8125,3.9375,74.75,-33.75,-24.3125,93656.25,48.737657662122416,20.021038553384223,30.432429198984757,148.42733707186122,156.94210910318526,187.76302851746075,93.74134106353634,79.18845228699546,162.56584782188656,37.069801958273395,50.388126486082406,20.67469438238152,13.323801276276043,6.726558848367327,8.809940328398316,13.005404598876876,4700.0,7200.0,850.0,-790.0,319.0,658.0,-107.0,12.0,-56.0,-67.5,-19.5,-61.0625,48.875,-50.0625,-43.0,93656.25,4817.3,7253.2,885.6,-206.0,655.0,1191.0,142.0,108.0,467.0,59.125,118.125,23.6875,85.25,-23.25,-13.9375,93682.5,4668.45,7185.1,796.05,-898.0,-12.0,370.0,-236.0,-177.0,-265.0,-67.5,-89.9375,-61.0625,46.4375,-50.0625,-43.0,93647.0,LivingRoom ,EATING,0,0,1
4759.99255319149,7216.150000000001,838.1489361702127,-571.3617021276596,263.6170212765957,730.3191489361702,-14.063829787234043,-39.829787234042556,-2.382978723404255,-0.973404255319149,-0.1077127659574468,-4.769946808510638,77.4747340425532,-35.61702127659574,-22.668882978723403,93656.90957446808,4792.6,7215.15,853.05,-549.0,279.0,686.0,10.0,-25.0,-25.0,-0.5,-10.125,0.25,80.125,-34.6875,-21.75,93651.75,52.8722023401335,17.42493840048998,38.372178396992524,168.20916398702445,129.40071789188158,196.987100259954,96.61204449516435,80.00090193756137,163.89863691391295,36.361699497314824,53.74779871334112,19.073130973518186,11.242514565667713,6.770545636573819,6.381828648944328,12.340220729025596,4800.0,7200.0,800.0,-790.0,319.0,658.0,-107.0,12.0,-122.0,28.75,-19.5,-61.0625,75.6875,-45.0,-21.75,93651.75,4817.3,7253.2,885.6,-194.0,520.0,1302.0,142.0,108.0,467.0,59.125,118.125,26.0,93.625,-23.25,-13.9375,93682.5,4668.45,7191.5,781.35,-932.0,-12.0,370.0,-241.0,-177.0,-264.0,-63.9375,-134.4375,-61.0625,49.75,-50.0625,-38.5625,93647.0,LivingRoom ,EATING,0,0,1
4785.517021276596,7228.004255319149,813.9840425531913,-573.7872340425532,230.68085106382978,730.6382978723404,-3.893617021276596,-33.340425531914896,-11.404255319148936,-3.776595744680851,2.06781914893617,-0.4800531914893617,87.14494680851064,-36.12367021276596,-19.80851063829787,93651.11170212766,4792.6,7218.1,802.85,-554.0,229.0,697.0,0.0,-20.0,-35.0,1.3125,8.75,2.8125,85.875,-36.1875,-19.625,93651.75,19.729825349597586,29.561047426924386,30.587650439179765,174.1891695542787,105.97766507577018,196.5637882449707,121.47217144940134,72.48576369843543,169.99893344607477,36.278682301288285,77.43160642487817,15.903181862114904,6.283877024502125,6.771710372761943,3.2073498583744806,7.373905318653992,4800.0,7200.0,800.0,-790.0,33.0,578.0,-96.0,-81.0,-137.0,28.75,-238.1875,-34.8125,80.125,-45.0,-21.75,93651.75,4817.3,7281.5,885.6,-150.0,392.0,1302.0,433.0,73.0,467.0,50.0625,126.3125,29.4375,97.625,-23.6875,-13.9375,93663.0,4750.05,7191.5,781.35,-932.0,-12.0,370.0,-241.0,-204.0,-270.0,-78.0,-238.1875,-34.8125,77.625,-50.0625,-25.625,93636.0,LivingRoom ,EATING,0,0,1
4777.074468085106,7230.324468085108,787.7659574468087,-538.4042553191489,234.9787234042553,755.5106382978723,-17.27659574468085,-36.829787234042556,-15.893617021276595,-3.4202127659574466,3.734042553191489,-3.2606382978723403,93.91090425531915,-33.505319148936174,-19.70345744680851,93649.54787234042,4772.75,7219.5,791.0,-533.0,223.0,727.0,-8.0,-36.0,-33.0,11.625,17.375,-3.8125,93.6875,-33.1875,-19.4375,93651.75,18.450909817146705,28.252052392433882,16.436065547867656,177.6637835392982,97.50217151688874,192.5024982718096,120.25655584184058,70.97988666392271,159.89388247842396,34.84540221303995,82.78817369129153,15.981840063396318,7.006447737494541,5.548220401551345,2.915606085529379,11.489555547496211,4750.0,7200.0,800.0,-457.0,33.0,549.0,-60.0,-36.0,-122.0,28.375,-238.1875,-34.8125,90.625,-31.4375,-23.25,93651.75,4810.75,7281.5,819.35,-129.0,421.0,1302.0,433.0,87.0,415.0,44.5,126.3125,29.4375,107.4375,-23.6875,-15.3125,93666.75,4744.4,7192.15,754.25,-932.0,13.0,421.0,-241.0,-213.0,-277.0,-78.0,-238.1875,-34.8125,81.25,-45.0,-25.625,93633.75,LivingRoom ,EATING,0,0,1
4767.75,7235.833333333333,798.178125,-567.3333333333334,224.27083333333334,728.7708333333334,-11.395833333333334,-39.333333333333336,-18.520833333333332,-1.015625,12.141927083333334,-2.7239583333333335,101.48697916666667,-35.813802083333336,-19.841145833333332,93647.90625,4767.4,7234.950000000001,799.025,-558.0,221.0,728.5,-7.5,-36.0,-30.5,11.25,22.71875,-2.71875,99.15625,-36.625,-19.3125,93645.25,8.413843708879257,25.489212013673836,25.188960149852377,160.61150873330544,108.55369091862669,202.3827466768901,116.48554646590705,90.33939159502273,165.4505119277759,31.79510873538068,77.25539829523377,16.972143720098348,7.530147281031416,5.700038633444647,3.45795313480901,12.687699794045798,4750.0,7250.0,800.0,-501.0,175.0,556.0,-60.0,-84.0,-43.0,26.875,-238.1875,-33.8125,90.625,-31.25,-21.4375,93636.0,4782.25,7281.5,844.45,-129.0,460.0,1197.0,433.0,153.0,415.0,44.5,126.3125,29.4375,112.6875,-24.625,-14.375,93666.75,4744.4,7183.95,754.25,-881.0,-12.0,327.0,-240.0,-279.0,-345.0,-78.0,-238.1875,-34.8125,88.5,-51.8125,-27.4375,93633.75,LivingRoom ,EATING,0,0,0
4765.303124999999,7199.75,763.5364583333334,-697.375,222.83333333333334,556.8333333333334,-24.958333333333332,-35.0,-15.833333333333334,1.6783854166666667,13.12109375,-0.6276041666666666,105.76822916666667,-47.1953125,-29.9921875,93648.8125,4766.7,7207.875,776.75,-652.5,220.5,569.5,-18.5,-27.5,-8.5,8.65625,18.1875,-2.15625,107.1875,-39.90625,-21.90625,93647.875,10.869165865987167,34.36134177401455,63.70145689538012,226.86903382929611,100.78232987078835,314.5794445769695,96.46186730502178,84.43327971483907,145.56819464010724,26.17374305284144,56.69501625416623,14.927411677977265,5.092315313771908,16.20865046511479,16.45228849457657,12.31873896903551,4750.0,7200.0,800.0,-501.0,-12.0,-65.0,-65.0,-84.0,-43.0,15.75,-171.5,-17.125,106.8125,-73.0625,-21.4375,93633.75,4782.25,7250.45,844.45,-129.0,460.0,1197.0,241.0,153.0,415.0,44.5,114.5,40.25,112.6875,-24.625,-14.375,93666.75,4744.4,7139.65,617.65,-1060.0,-12.0,-65.0,-240.0,-279.0,-345.0,-68.25,-171.5,-33.8125,93.6875,-73.0625,-72.0,93633.75,LivingRoom ,EATING,1,0,4
4753.548958333333,7199.207291666667,713.5614583333332,-817.625,247.9375,418.5833333333333,-13.041666666666666,-36.0,-6.770833333333333,4.41015625,11.536458333333334,2.2786458333333335,104.76432291666667,-55.940104166666664,-38.584635416666664,93653.45833333333,4759.0,7204.175,693.1,-847.0,259.0,388.0,-27.0,-34.5,5.0,7.46875,16.9375,2.4375,107.0625,-58.9375,-40.25,93655.75,19.93771815616877,35.29734332354706,93.62906227279719,175.8798701483608,100.09578524295743,278.6681724822731,118.24531988099515,80.00957389521342,133.36882783315093,21.207799563888937,50.899539329399,14.99808253664956,6.240368104501242,12.721566637080688,15.895036199867615,10.520159640673151,4750.0,7200.0,600.0,-1060.0,272.0,388.0,-65.0,-38.0,7.0,15.75,13.875,-17.125,91.3125,-58.9375,-39.3125,93636.0,4782.25,7248.95,844.45,-410.0,461.0,1156.0,464.0,153.0,396.0,40.5,90.1875,40.25,112.6875,-33.9375,-14.375,93668.5,4719.5,7139.65,587.65,-1060.0,-12.0,-143.0,-223.0,-279.0,-370.0,-58.0,-120.125,-33.8125,89.3125,-73.0625,-72.0,93636.0,LivingRoom ,EATING,0,0,3
4735.740624999999,7198.577083333333,681.8947916666666,-795.5416666666666,226.20833333333334,415.9375,-10.604166666666666,-22.3125,-12.395833333333334,-6.63671875,-12.723958333333334,-0.4453125,100.78385416666667,-54.721354166666664,-37.217447916666664,93653.84375,4727.525,7208.175,674.575,-895.5,259.0,377.5,-34.5,-27.5,-2.0,-5.78125,-3.4375,3.0625,101.375,-59.65625,-41.3125,93655.125,19.266326749268423,33.59961999267969,64.74886119066178,247.5012106854836,133.78467271134713,292.0006125212171,126.55614170614598,68.27826552097814,104.64768442067856,24.57933196573864,65.05035236881302,21.157729999460084,5.756846616650633,16.763941871272,20.556709111429058,10.513747965240357,4750.0,7150.0,600.0,-926.0,279.0,388.0,-65.0,-117.0,-236.0,22.75,-14.0625,-6.6875,91.3125,-58.9375,-39.3125,93651.75,4778.25,7244.4,796.7,-180.0,461.0,1020.0,464.0,142.0,185.0,38.6875,90.1875,40.25,108.6875,-22.625,3.3125,93668.5,4712.45,7139.65,587.65,-1060.0,-126.0,-143.0,-223.0,-145.0,-370.0,-65.25,-197.0,-67.0625,89.3125,-73.0625,-72.0,93636.75,LivingRoom ,EATING,2,0,3
4724.373958333334,7203.112499999999,726.1531249999998,-592.2708333333334,58.729166666666664,618.3333333333334,8.166666666666666,-26.3125,-16.958333333333332,-11.209635416666666,-11.440104166666666,1.5052083333333333,96.00520833333333,-39.100260416666664,-15.313802083333334,93653.30208333333,4722.75,7208.175,727.025,-597.0,158.5,645.0,-8.0,-38.5,-15.0,-18.8125,-11.75,7.8125,95.375,-41.0,-7.34375,93653.0,8.193387250492043,29.015350852718974,92.06867834708927,322.0019650781411,259.32832550225095,301.4300902212321,136.46515155398643,71.10290901371593,126.78092317959158,25.584927442368723,84.05755686084655,20.146297676299156,4.715260586911636,20.102743654967497,27.520680961457625,10.326447960565604,4700.0,7200.0,600.0,-926.0,279.0,388.0,-69.0,-117.0,-106.0,-65.25,-14.0625,-6.6875,89.4375,-58.9375,-39.3125,93651.75,4739.6,7244.4,857.85,42.0,461.0,1074.0,464.0,142.0,283.0,38.6875,215.3125,26.125,104.5,-2.625,21.75,93668.5,4708.55,7138.75,587.65,-1025.0,-406.0,-143.0,-227.0,-145.0,-370.0,-65.25,-212.5,-67.0625,89.0625,-62.8125,-60.0,93636.75,LivingRoom ,EATING,3,0,2
4723.037499999999,7181.947916666667,794.9416666666666,-479.6458333333333,-100.83333333333333,704.0208333333334,29.895833333333332,-25.25,-18.9375,-9.709635416666666,5.5234375,2.4153645833333335,96.90364583333333,-33.846354166666664,4.4609375,93650.40104166667,4720.174999999999,7173.450000000001,820.575,-401.0,-154.5,829.0,22.5,-25.5,-25.5,-14.375,-15.8125,8.53125,97.09375,-25.4375,12.96875,93651.75,11.52666427730514,33.7999590178735,54.23015014175383,338.3828556584185,205.59890029233728,310.3150416732203,143.52688821905105,93.57043086314658,161.14661043035156,27.735594693987448,110.3686676102409,21.08549627560895,4.606110042428535,21.976682208494843,18.11407697733151,9.127603036379066,4700.0,7150.0,850.0,-1133.0,-71.0,859.0,-69.0,-79.0,-362.0,-65.25,-212.5,7.6875,89.4375,-30.625,10.8125,93651.75,4746.6,7240.65,857.85,140.0,337.0,1152.0,355.0,142.0,544.0,65.125,265.4375,32.625,104.3125,-2.625,21.75,93668.5,4700.6,7138.55,673.15,-1133.0,-406.0,-150.0,-227.0,-256.0,-362.0,-65.25,-212.5,-67.0625,89.0625,-80.3125,-57.25,93636.75,LivingRoom ,EATING,4,0,2
4702.821875000001,7167.221874999999,800.0177083333333,-618.5833333333334,-98.875,459.5208333333333,23.645833333333332,-28.291666666666668,-8.75,2.3541666666666665,26.880208333333332,12.51953125,98.12109375,-48.282552083333336,-25.69921875,93652.796875,4714.200000000001,7167.05,821.55,-687.0,-154.5,514.5,-13.0,-14.0,0.5,0.40625,11.625,14.15625,97.84375,-45.5625,12.96875,93654.625,37.50458682054491,18.180764637180495,46.930683935315976,389.0235366359439,197.94213908496573,444.0801628603774,131.12013162912748,76.7596298853886,153.08522171125134,23.713000762068138,96.32742191602341,14.824590273268237,5.5868298043076745,30.185970539597406,66.72043140445717,8.092986234809034,4700.0,7150.0,850.0,-963.0,-406.0,859.0,-69.0,-72.0,-32.0,27.1875,-212.5,7.6875,95.3125,-80.3125,10.8125,93661.25,4746.6,7200.9,857.85,140.0,280.0,1152.0,355.0,141.0,544.0,65.125,265.4375,36.0,106.375,-2.625,21.75,93661.25,4624.55,7138.55,711.8,-1133.0,-406.0,-150.0,-227.0,-256.0,-362.0,-46.375,-212.5,-18.125,89.0625,-89.125,-179.5,93639.25,LivingRoom ,EATING,6,0,8
4655.357608695653,7186.811956521741,757.9836956521739,-809.8695652173913,86.67391304347827,156.3913043478261,7.6521739130434785,-27.434782608695652,0.13043478260869565,5.989130434782608,23.46195652173913,12.580163043478262,97.95923913043478,-63.266304347826086,-65.28260869565217,93654.29891304347,4656.1,7177.425,727.525,-936.0,106.5,-57.5,-20.5,-10.0,3.5,1.125,5.3125,10.6875,98.0625,-69.40625,-106.84375,93656.25,65.85085755570123,36.697164868968954,58.447760202640055,311.9531025078148,234.63958691745148,402.43897968157825,111.99488428620384,72.82845969168099,130.04676230676958,18.170218041385677,77.0579287846939,16.49127854017064,6.490072779714442,22.543963356438127,68.15717097055999,8.10188927987674,4650.0,7150.0,700.0,-963.0,265.0,-168.0,-34.0,-10.0,-44.0,27.1875,0.0,32.625,91.6875,-80.3125,-110.875,93661.25,4746.6,7264.35,839.65,140.0,416.0,1152.0,355.0,121.0,544.0,65.125,265.4375,37.6875,106.375,-10.875,16.5625,93664.25,4538.8,7138.55,685.45,-1133.0,-396.0,-174.0,-216.0,-256.0,-362.0,-20.5625,-172.625,-18.125,80.25,-89.125,-179.5,93641.0,LivingRoom ,EATING,2,0,3
4617.639024390243,7202.6731707317085,709.9878048780488,-906.9024390243902,311.4634146341463,-103.04878048780488,-21.24390243902439,-23.634146341463413,-1.170731707317073,-0.7195121951219512,10.946646341463415,14.216463414634147,87.07469512195122,-67.78201219512195,-107.35823170731707,93652.2012195122,4615.25,7200.9,702.15,-934.0,308.0,-121.0,-21.0,-15.0,-1.0,0.6875,9.1875,11.8125,93.5,-68.9375,-109.5625,93653.25,43.35512875109915,29.722066923333585,37.92037180146017,98.12996608530159,189.86522819634138,80.3037829804774,46.74814460906704,31.009479274538762,52.38697473562698,18.00400412251668,16.15361777986742,15.978361207188241,17.636671775337195,12.339446417124941,37.058070520484726,9.721307061070016,4600.0,7200.0,700.0,-963.0,265.0,-168.0,-34.0,-10.0,-44.0,-38.0625,0.0,28.3125,91.6875,-89.125,-110.875,93661.25,4703.25,7264.35,826.6,-714.0,575.0,126.0,84.0,75.0,92.0,30.25,49.0625,37.6875,106.375,-49.5625,1.625,93664.25,4538.8,7148.65,651.45,-1129.0,-76.0,-202.0,-133.0,-77.0,-234.0,-38.0625,-35.9375,-15.0625,54.3125,-89.125,-179.5,93637.5,LivingRoom ,EATING,0,0,0
4631.013095238096,7191.7642857142855,699.4738095238095,-737.6666666666666,523.4047619047619,-4.404761904761905,-23.857142857142858,-33.07142857142857,-34.023809523809526,-1.4166666666666667,-27.563988095238095,18.178571428571427,81.43154761904762,-49.575892857142854,-94.15327380952381,93650.05952380953,4618.2,7188.425,696.95,-834.5,534.0,-143.0,-21.0,-19.0,-7.0,-4.09375,0.0,11.09375,90.0625,-52.53125,-106.75,93650.25,53.37743660917334,38.600689185232376,28.729712328866423,259.7441204918435,214.6607146540689,326.24456332439075,75.03578704844172,69.63857665751804,103.92715274564435,29.835858973575018,69.21753785908774,25.139108295586233,15.418895607460824,18.537071129040815,25.038682734433912,8.666730880669821,4700.0,7150.0,700.0,-1010.0,325.0,-168.0,-21.0,-129.0,-44.0,-30.375,0.0,-15.0625,90.0625,-69.8125,-110.875,93642.75,4704.35,7264.35,791.55,-164.0,1611.0,699.0,219.0,75.0,92.0,69.25,33.375,81.0625,100.125,-9.625,-43.625,93664.25,4538.8,7134.0,651.45,-1010.0,265.0,-415.0,-195.0,-269.0,-442.0,-47.0,-289.75,-15.0625,54.3125,-69.8125,-115.875,93637.5,LivingRoom ,EATING,2,1,2
4674.311627906977,7169.712790697675,756.856976744186,-472.3720930232558,626.5813953488372,271.7906976744186,-17.6046511627907,-34.883720930232556,-39.02325581395349,-0.31540697674418605,-25.92877906976744,14.770348837209303,81.85901162790698,-29.478197674418606,-71.66279069767442,93645.95930232559,4690.55,7162.8,721.35,-342.0,627.0,536.0,-17.0,-26.0,-22.0,-1.875,2.5625,6.4375,90.6875,-21.625,-54.1875,93642.75,36.794234533495484,21.830682571793055,83.42560813696988,320.69433772718355,164.75844259864334,425.7543757647536,72.13219990798764,67.08424316531507,100.24695420431749,29.05050620886219,69.14803685574594,25.22985745140611,15.176173349745588,20.625067116236984,30.192050639008983,6.8223482186082265,4700.0,7150.0,700.0,-142.0,651.0,659.0,-40.0,-129.0,-23.0,-30.375,4.3125,-1.6875,90.0625,-11.25,-111.75,93642.75,4713.7,7226.6,891.35,-82.0,1611.0,713.0,219.0,75.0,92.0,69.25,33.375,81.0625,100.125,-6.6875,-43.375,93654.0,4594.2,7134.0,651.45,-997.0,500.0,-415.0,-195.0,-269.0,-442.0,-47.0,-289.75,-12.8125,54.3125,-57.4375,-115.875,93637.5,LivingRoom ,EATING,1,1,2
4697.655208333334,7154.930208333334,784.7843750000001,-333.7291666666667,647.3541666666666,497.75,-15.583333333333334,-32.270833333333336,-41.708333333333336,2.55078125,-25.8359375,11.270833333333334,90.5625,-19.735677083333332,-54.505208333333336,93645.890625,4697.875,7158.45,788.075,-262.5,636.0,649.0,-14.0,-24.5,-25.0,0.3125,0.4375,-0.3125,92.40625,-14.875,-44.4375,93642.75,10.439650477067346,16.246167271682985,69.67227245136499,248.4469839061379,149.33049019345796,336.30605994755257,65.63919214995938,60.67167995223925,84.92423615508604,24.060417691919668,64.30339002145477,23.660748217367804,7.808046603044781,15.298168171347358,21.832674985675524,8.169075420026743,4700.0,7150.0,700.0,-265.0,630.0,659.0,-40.0,-31.0,-31.0,-1.25,4.25,-1.75,94.25,-16.625,-44.4375,93642.75,4715.3,7181.95,891.35,-82.0,1611.0,713.0,219.0,73.0,74.0,69.25,23.9375,81.0625,100.125,-6.6875,-43.375,93656.25,4674.5,7114.65,670.15,-997.0,500.0,-415.0,-195.0,-269.0,-442.0,-47.0,-289.75,-8.3125,60.125,-56.125,-115.875,93633.75,LivingRoom ,EATING,2,1,2
4716.071875000001,7139.686458333333,791.2270833333332,-265.625,622.6875,653.7291666666666,-9.4375,-22.458333333333332,-26.208333333333332,-3.18359375,-2.0950520833333335,-9.930989583333334,95.85286458333333,-15.143229166666666,-43.404947916666664,93648.625,4709.05,7141.674999999999,792.775,-265.0,637.0,652.0,-8.0,-22.0,-24.0,-0.09375,3.46875,-1.71875,93.65625,-15.84375,-44.34375,93652.875,19.72982111146535,28.100463272442443,64.48552613318557,117.98658867169175,49.19961781982683,36.86475545877744,52.1572525097105,47.12363021693782,26.350306496932244,14.563463956829604,25.701973098204867,20.83860312616681,6.965059186059707,5.923113286064748,4.100426271612713,9.483468258647042,4700.0,7150.0,800.0,-265.0,630.0,649.0,-29.0,-31.0,-31.0,-1.25,4.25,-1.75,94.25,-16.625,-44.875,93633.75,4754.75,7181.95,891.35,-82.0,661.0,718.0,199.0,164.0,49.0,24.1875,29.8125,14.5625,122.4375,-6.6875,-24.625,93658.75,4690.55,7088.95,682.15,-630.0,435.0,502.0,-166.0,-167.0,-116.0,-56.375,-111.6875,-66.75,90.4375,-29.375,-46.75,93633.75,LivingRoom ,EATING,0,0,0
4729.903125,7149.747916666666,786.3979166666667,-355.3125,510.0208333333333,711.7291666666666,-11.125,-13.958333333333334,-11.958333333333334,-4.53515625,-0.5221354166666666,-9.71484375,106.125,-20.658854166666668,-35.541666666666664,93652.203125,4738.424999999999,7141.674999999999,792.775,-294.5,627.5,654.5,-8.0,-18.5,-20.5,0.09375,2.65625,-1.5625,96.0,-18.53125,-44.1875,93655.75,19.710579852244333,46.13323323086444,59.151342099424255,129.8444496966323,167.01222908254522,131.1861986097385,87.80191075321136,55.52839347819729,80.89813882437733,22.12034490279669,31.066063704514843,24.696747548407004,14.124429239080326,5.217747918401412,12.169939840728482,8.557946451889276,4750.0,7150.0,850.0,-265.0,630.0,646.0,-13.0,-28.0,-7.0,1.375,-111.6875,-1.1875,94.25,-16.625,-44.875,93633.75,4759.7,7247.05,870.1,-140.0,660.0,1145.0,245.0,164.0,282.0,33.375,72.75,35.0,128.3125,-13.4375,-14.75,93658.75,4696.75,7088.95,682.15,-673.0,153.0,502.0,-233.0,-167.0,-255.0,-61.0,-111.6875,-66.75,92.3125,-30.625,-46.75,93633.75,LivingRoom ,EATING,0,0,0
4756.465625,7191.636458333333,806.3166666666666,-447.1458333333333,401.9791666666667,724.0625,-4.854166666666667,0.10416666666666667,-14.0625,-3.6875,2.1575520833333335,-11.45703125,119.13411458333333,-27.369791666666668,-27.951822916666668,93654.88541666667,4748.775,7196.299999999999,820.025,-436.5,370.5,692.0,-9.0,-5.0,-15.0,-0.96875,2.1875,-3.75,124.5,-25.375,-23.125,93654.625,23.047696050106314,71.23029084594724,61.83860112140703,188.17047381646265,161.30247647956222,146.42729751466018,102.78504518744153,61.16640698922596,100.72342714878076,27.019355011042844,56.658833402425664,25.430201970275476,14.674198875243867,9.711546454099977,11.497876766755947,2.9099784003975255,4750.0,7250.0,850.0,-266.0,307.0,591.0,-31.0,0.0,-65.0,-39.5,-111.6875,-66.75,95.375,-28.0,-44.875,93650.0,4808.05,7294.0,872.7,-140.0,660.0,1145.0,245.0,164.0,282.0,47.875,168.3125,35.0,136.125,-16.5,-14.75,93658.75,4724.05,7088.95,682.15,-949.0,153.0,459.0,-233.0,-167.0,-255.0,-61.0,-111.6875,-66.75,94.75,-52.8125,-46.75,93650.0,LivingRoom ,EATING,1,0,0
4766.548936170212,7256.835106382978,821.0765957446808,-569.0212765957447,285.36170212765956,720.6382978723404,-7.851063829787234,3.8297872340425534,-2.4468085106382977,0.5159574468085106,8.481382978723405,-2.5558510638297873,131.52925531914894,-35.787234042553195,-21.01462765957447,93655.13829787234,4759.7,7268.05,822.25,-580.0,277.0,692.0,-11.0,0.0,-11.0,1.125,3.75,-1.9375,133.5,-34.6875,-21.5,93655.25,22.650637022815037,48.4291065405354,40.67055719979406,194.93482627274955,84.41162745270162,167.28073585545985,100.14575871186007,56.606313654979516,121.22021077552431,28.48756184796495,55.21622811238409,16.856946028951626,5.948229022951449,10.647479892102588,3.2375444003470157,3.6940788809808076,4750.0,7250.0,850.0,-949.0,251.0,692.0,-31.0,0.0,-178.0,27.4375,-79.5,-39.6875,128.3125,-42.4375,-20.5,93650.0,4808.05,7327.95,872.7,-147.0,454.0,1145.0,245.0,110.0,332.0,47.875,168.3125,35.0,140.1875,-19.4375,-14.75,93661.25,4734.4,7142.85,754.9,-949.0,72.0,459.0,-233.0,-144.0,-255.0,-61.0,-79.5,-39.6875,118.5625,-52.8125,-26.0625,93650.0,LivingRoom ,EATING,0,0,0
4737.002083333334,7281.217708333334,801.5625,-655.4791666666666,315.6666666666667,633.7916666666666,-6.6875,10.25,-10.625,2.9361979166666665,2.2122395833333335,-2.5638020833333335,137.23958333333334,-42.024739583333336,-25.045572916666668,93657.80208333333,4757.575,7282.175,792.925,-697.5,344.5,618.0,-9.0,5.0,-10.5,1.09375,-2.625,0.625,137.21875,-44.25,-24.5625,93658.5,67.5212590307623,22.873708519718367,37.061549582374575,159.85658327485942,82.1978239949425,118.85875012917435,70.37321669257115,53.73674997496909,96.15891656025744,23.01211481925719,52.79484194220129,9.922048987696588,4.533495561213896,8.387601067019322,4.985029776463688,5.941639561077301,4750.0,7300.0,800.0,-744.0,251.0,618.0,-32.0,24.0,-178.0,27.4375,-1.6875,3.6875,133.5,-48.125,-20.5,93651.5,4808.05,7327.95,872.7,-147.0,454.0,1019.0,179.0,109.0,332.0,47.875,168.3125,12.9375,143.5,-19.4375,-16.625,93671.5,4579.5,7229.95,754.9,-949.0,72.0,459.0,-210.0,-144.0,-212.0,-48.375,-79.5,-25.9375,124.1875,-52.8125,-32.5625,93650.0,LivingRoom ,EATING,1,0,0
4678.465625,7285.0614583333345,783.328125,-706.0833333333334,319.9375,615.9375,-10.020833333333334,-0.8958333333333334,11.625,2.3515625,0.75390625,0.4427083333333333,140.67057291666666,-44.821614583333336,-27.4296875,93661.03125,4656.85,7286.275,779.175,-709.0,353.5,618.0,-5.0,0.0,13.0,1.09375,0.78125,0.78125,141.46875,-44.75,-27.5,93661.875,77.97514822061324,25.068001642305944,19.97052057794827,75.87358841151324,79.06189502333504,99.76427669389138,59.69514381451359,54.66853293173141,88.10719414199086,23.24321646993701,38.1178542445546,10.384655156606367,3.238516423850396,2.758418858384897,4.395159197156692,6.710507995166348,4600.0,7300.0,800.0,-716.0,370.0,513.0,-32.0,-26.0,-17.0,6.4375,-1.6875,-5.9375,135.125,-47.375,-32.25,93665.25,4795.85,7338.4,832.15,-536.0,436.0,1019.0,108.0,109.0,332.0,43.125,103.6875,20.25,147.6875,-38.0625,-16.625,93671.5,4572.75,7229.95,754.9,-875.0,72.0,457.0,-193.0,-144.0,-178.0,-48.375,-85.25,-28.3125,135.0,-51.125,-34.75,93651.25,LivingRoom ,EATING,0,0,0
4654.783695652174,7287.563043478262,788.541304347826,-660.5434782608696,347.39130434782606,632.2608695652174,0.08695652173913043,-2.847826086956522,14.065217391304348,-1.5407608695652173,-1.1603260869565217,4.241847826086956,141.7445652173913,-42.46195652173913,-29.050271739130434,93662.88586956522,4652.85,7283.175,785.375,-687.0,366.5,622.5,-4.0,1.5,4.5,-0.09375,-4.53125,2.40625,142.09375,-43.78125,-29.5625,93665.25,56.12194070290932,33.99411131158946,25.9001636724726,130.11033036478253,68.00277061704325,111.55276475135656,73.5913117115077,57.306570261786575,111.28729630483696,24.228359535822918,55.85539932771021,11.384028839596857,3.6814292327372224,5.103724100896093,3.028757410604997,8.50076900471349,4600.0,7300.0,800.0,-716.0,370.0,697.0,-32.0,-8.0,-17.0,6.4375,-6.125,-1.625,141.1875,-45.125,-32.25,93665.25,4764.0,7353.45,840.7,-283.0,481.0,1014.0,196.0,109.0,404.0,43.125,221.75,29.8125,147.6875,-27.75,-21.4375,93677.25,4572.75,7229.95,746.85,-911.0,159.0,429.0,-212.0,-171.0,-184.0,-55.6875,-125.25,-28.3125,132.625,-51.125,-34.75,93650.5,LivingRoom ,EATING,0,0,0
4689.515555555556,7258.69,764.9055555555556,-624.2222222222222,332.1333333333333,670.8,2.1333333333333333,-18.955555555555556,18.42222222222222,-3.3305555555555557,2.227777777777778,3.8930555555555557,137.59305555555557,-39.62777777777778,-27.66111111111111,93665.21111111112,4692.85,7265.4,767.05,-627.0,326.0,675.0,2.0,-8.0,0.0,-7.8125,-1.75,2.375,138.375,-39.375,-26.875,93665.25,69.19274776618103,59.603697452423134,44.630702108605355,142.08030521966487,108.36566883389861,164.9616484354635,94.22569616713808,86.77739430068272,160.2303014256339,33.37019463996791,59.912107374105226,13.733639687254922,6.905081686224598,5.105926180959146,3.254462869187355,9.230931752001041,4750.0,7300.0,750.0,-716.0,159.0,697.0,-212.0,-97.0,0.0,-68.375,-125.25,-6.25,131.1875,-40.5625,-26.875,93651.25,4769.9,7353.45,840.7,-283.0,573.0,1121.0,196.0,116.0,404.0,44.4375,221.75,29.8125,147.6875,-27.75,-21.4375,93677.25,4572.75,7160.45,693.1,-911.0,47.0,376.0,-212.0,-290.0,-239.0,-68.375,-125.25,-30.6875,126.1875,-51.125,-34.75,93650.5,LivingRoom ,EATING,0,0,0
4739.747777777778,7216.753333333334,739.4044444444444,-564.2,325.0,702.5333333333333,15.466666666666667,-22.511111111111113,6.288888888888889,-5.683333333333334,1.738888888888889,1.7458333333333333,131.6638888888889,-36.63611111111111,-26.2375,93665.96666666666,4747.1,7173.2,727.4,-576.0,326.0,686.0,5.0,-8.0,-71.0,9.4375,-3.5,1.6875,129.1875,-36.5625,-26.5,93668.5,29.99586705538021,69.05941726974214,40.388260308003744,185.5504832065436,127.89484316848319,236.78601770758797,150.95402671614355,102.13262817226304,217.53073160342012,38.15266879739393,71.31282777304077,13.91900525850765,6.905321678775995,4.59934702491077,3.745157858670798,9.225181693209478,4750.0,7150.0,700.0,-627.0,261.0,590.0,-212.0,-290.0,0.0,-77.1875,-147.0625,-6.25,126.1875,-38.875,-26.6875,93652.75,4769.9,7353.45,840.7,92.0,573.0,1487.0,682.0,116.0,755.0,44.4375,221.75,29.8125,147.625,-27.25,-19.5625,93677.25,4667.8,7146.9,693.1,-936.0,-10.0,376.0,-265.0,-290.0,-257.0,-77.1875,-147.0625,-30.6875,121.6875,-45.625,-34.125,93650.5,LivingRoom ,EATING,1,0,2
4757.962765957447,7178.167021276597,724.8155705996131,-569.4893617021277,286.0,713.1276595744681,15.595744680851064,-30.93617021276596,8.148936170212766,-1.726063829787234,13.803191489361701,-3.3843085106382977,126.69414893617021,-36.89760638297872,-24.52127659574468,93660.40957446808,4758.45,7169.4,727.7,-578.0,269.0,673.0,-7.0,-24.0,-50.0,13.625,24.0625,-0.6875,126.4375,-36.4375,-23.875,93664.5,10.811997503202182,23.54153885802469,15.596874881168398,205.57479040384237,130.7834253559146,259.9233680564228,150.95776253129594,96.51096001183069,209.30256637777265,39.03768679995638,79.27732562214426,15.341565021547208,3.0241676575239778,7.8524351657250175,5.385516074548747,12.843161935856694,4750.0,7150.0,750.0,-990.0,261.0,590.0,-54.0,-290.0,0.0,-77.1875,-147.0625,-6.25,126.1875,-38.875,-26.5,93652.75,4776.9,7240.0,751.7,92.0,573.0,1487.0,682.0,116.0,755.0,62.0,206.5,29.3125,134.3125,-24.6875,-15.5,93677.25,4738.7,7146.9,693.1,-990.0,-10.0,190.0,-265.0,-290.0,-257.0,-77.1875,-147.0625,-45.25,121.6875,-70.1875,-43.9375,93637.0,LivingRoom ,EATING,1,0,2
4747.064583333333,7186.145833333333,714.0126893939392,-622.4791666666666,277.9583333333333,551.6458333333334,23.604166666666668,-26.854166666666668,-2.4166666666666665,-8.3828125,6.998697916666667,-2.55859375,123.13411458333333,-43.166666666666664,-38.821614583333336,93661.09375,4746.775,7175.125,721.7,-596.0,273.0,607.5,2.5,-14.0,-20.0,-14.125,24.96875,-0.21875,123.90625,-37.09375,-24.15625,93663.75,16.52032583758988,25.29100595606078,26.733490884423112,275.3377028678916,108.36639157365643,421.2310474091605,160.60984040006184,99.44697926230421,187.35139737747028,35.45204991606733,114.84973017038394,20.282395474856287,5.068808283752936,14.774003038450408,33.696033956320846,13.671256634952158,4750.0,7150.0,750.0,-949.0,261.0,877.0,-54.0,44.0,55.0,-77.1875,-247.125,9.5625,123.375,-36.5625,-23.0625,93652.75,4776.9,7226.85,747.1954545454545,92.0,494.0,1487.0,682.0,121.0,755.0,62.0,248.125,40.5,129.6875,-24.6875,-15.4375,93680.75,4711.8,7146.9,646.3,-1050.0,-10.0,-214.0,-265.0,-290.0,-310.0,-77.1875,-247.125,-62.25,107.0625,-74.375,-125.1875,93637.0,LivingRoom ,EATING,1,0,7
4718.552083333333,7209.483333333334,704.1741477272727,-758.5,293.2916666666667,304.25,-9.770833333333334,-22.020833333333332,-1.2083333333333333,-11.427083333333334,22.993489583333332,9.313802083333334,115.63932291666667,-52.416666666666664,-58.8515625,93657.6875,4728.925,7215.799999999999,700.3,-813.0,293.0,220.5,-46.0,-2.5,2.5,-15.46875,29.5625,10.03125,122.09375,-53.71875,-38.78125,93655.125,43.546335017309026,24.473823039819393,28.597628405340274,273.03253644473733,130.7057696773572,447.15409786117647,121.69603563244155,88.46912902691052,115.88860357997378,29.73678113855414,109.64143251223506,28.542913082432076,15.465699863606748,16.7861398257082,42.35362705719861,12.723062909033896,4750.0,7200.0,700.0,-1007.0,446.0,877.0,-67.0,44.0,-10.0,-70.375,-247.125,-8.25,123.375,-77.75,-125.1875,93637.0,4776.9,7252.45,747.1954545454545,-126.0,598.0,1115.0,369.0,121.0,410.0,62.0,248.125,59.75,128.5625,-24.6875,-15.4375,93680.75,4631.65,7160.9,646.3,-1185.0,38.0,-218.0,-325.0,-278.0,-310.0,-70.375,-247.125,-62.25,66.8125,-77.75,-125.1875,93637.0,LivingRoom ,EATING,2,0,9
4679.691666666667,7196.585416666666,676.1547348484848,-820.5,429.1041666666667,4.625,-39.854166666666664,-18.020833333333332,-4.645833333333333,-7.915364583333333,4.692708333333333,10.934895833333334,96.98697916666667,-54.733072916666664,-86.83463541666667,93658.875,4668.6,7219.7,671.575,-845.5,412.5,-120.0,-47.0,-0.5,8.0,-7.65625,11.15625,11.375,107.34375,-50.8125,-103.15625,93655.125,40.70396019905836,47.88076942441247,21.339065110850356,210.3874844590839,187.55030412669075,339.4741004754516,115.8195569388156,87.0782210315196,106.38258727764861,27.58324709329914,99.19886859640455,26.360046552391324,25.396431176019203,13.394222985012217,35.75673778193056,11.509593593209582,4650.0,7200.0,650.0,-1007.0,446.0,-436.0,-67.0,-35.0,-18.0,-70.375,-247.125,-62.25,123.9375,-45.3125,-102.3125,93645.25,4746.45,7252.45,712.3,-126.0,699.0,999.0,369.0,121.0,401.0,60.9375,248.125,59.75,128.0,-29.1875,-15.4375,93680.75,4611.8,7089.55,635.4,-1185.0,38.0,-436.0,-325.0,-278.0,-310.0,-70.375,-247.125,-62.25,59.875,-77.75,-125.1875,93645.25,LivingRoom ,EATING,1,0,2
4676.441666666667,7172.1968750000015,686.0802083333333,-792.9166666666666,505.2708333333333,56.666666666666664,-46.5625,-22.229166666666668,3.75,-5.56640625,-5.119791666666667,3.98828125,92.24348958333333,-50.796875,-82.77994791666667,93655.41666666667,4668.6,7167.35,685.0,-783.0,586.5,-46.5,-43.0,-11.0,2.5,-5.25,1.71875,3.03125,97.46875,-46.1875,-100.6875,93655.5,38.81989966407791,51.963126662853774,30.44023572542603,158.60292092147196,167.1751202581692,295.57807287266854,93.91438071059895,61.47832677554398,83.26054977560604,23.88821556320638,61.33517584090223,31.99158813622303,22.09886679209072,11.441626682583951,30.512703878918185,6.996833123554202,4650.0,7150.0,700.0,-800.0,596.0,-436.0,-67.0,-35.0,27.0,-8.125,-114.9375,-85.25,59.875,-50.6875,-102.3125,93645.25,4747.95,7252.45,767.85,-384.0,699.0,736.0,233.0,89.0,401.0,60.9375,179.9375,59.75,126.0,-35.5,-16.25,93668.25,4611.8,7089.55,635.4,-1185.0,38.0,-436.0,-325.0,-203.0,-165.0,-48.125,-114.9375,-85.25,59.875,-77.75,-116.125,93645.25,LivingRoom ,EATING,0,0,1
4695.647872340426,7171.703191489362,703.8308510638295,-776.3404255319149,457.82978723404256,165.2127659574468,-30.106382978723403,-17.106382978723403,7.74468085106383,-2.328457446808511,-15.488031914893616,-8.680851063829786,98.76595744680851,-51.869680851063826,-67.96010638297872,93658.01595744681,4705.2,7165.3,701.85,-750.0,581.0,141.0,-25.0,-3.0,-2.0,-5.125,-11.75,-1.9375,101.5625,-46.125,-67.4375,93659.75,41.94290627363584,61.05103923576468,44.102275590987624,151.76630728162937,205.0799758258625,314.88203009534504,91.99367512345455,59.815017033515126,90.15047037064257,21.96728000093444,63.018050864536136,23.59343141176551,24.648160966064374,12.988954793787688,32.460025650110445,7.565188482830984,4750.0,7150.0,700.0,-800.0,596.0,-436.0,-40.0,-14.0,-36.0,-28.875,-104.125,4.5,124.25,-50.6875,-16.6875,93645.25,4747.95,7338.15,783.5,-384.0,699.0,743.0,233.0,89.0,401.0,60.9375,132.8125,26.9375,126.75,-35.5,-16.6875,93668.25,4611.8,7089.55,635.4,-1086.0,66.0,-436.0,-276.0,-203.0,-165.0,-40.375,-114.9375,-85.25,59.875,-78.9375,-116.125,93645.25,LivingRoom ,EATING,0,0,3
4740.517021276596,7255.1936170212775,717.3542553191489,-747.531914893617,269.9148936170213,439.0,-3.404255319148936,-16.5531914893617,16.340425531914892,2.5252659574468086,-33.640957446808514,-17.14494680851064,121.86702127659575,-52.819148936170215,-35.412234042553195,93652.45212765958,4735.25,7226.2,714.2,-789.0,213.0,432.0,-19.0,-3.0,19.0,-4.6875,-25.125,-13.3125,124.5,-51.125,-29.25,93659.75,37.34895708426336,110.3961904751036,33.46135803428504,258.8637253597403,215.40950180762727,262.23653444934024,94.14666162186577,55.882177492757926,72.60053796535163,30.17888148747958,81.86390613946536,28.168836931013363,15.307700096313225,17.608790505434847,25.27399668069481,15.36597369347501,4750.0,7150.0,700.0,-1086.0,204.0,448.0,-119.0,4.0,-19.0,-28.875,-104.125,-51.3125,124.25,-78.9375,-17.8125,93625.0,4825.75,7417.9,783.5,180.0,633.0,1109.0,233.0,89.0,191.0,81.875,132.8125,26.9375,158.5,0.0,-2.5,93668.25,4669.7,7124.45,663.65,-1086.0,-47.0,44.0,-148.0,-159.0,-170.0,-40.375,-212.9375,-100.6875,93.125,-78.9375,-86.8125,93625.0,LivingRoom ,EATING,0,0,1
4766.253191489361,7327.689361702128,754.3702127659576,-527.531914893617,181.63829787234042,585.8723404255319,-39.680851063829785,-21.04255319148936,-13.936170212765957,14.23404255319149,-18.90691489361702,-5.05186170212766,147.8869680851064,-35.22739361702128,-21.92287234042553,93650.75,4765.5,7355.85,751.4,-723.0,204.0,567.0,-25.0,-3.0,-1.0,3.8125,-14.125,-13.3125,134.375,-51.125,-17.8125,93656.5,40.349697488569326,74.92975764019593,69.71769912793218,471.959921431426,136.77280837243657,314.82152411231885,118.87902260975756,88.24741835041644,149.44977406347112,47.16619420404621,84.86682229159422,59.689769646053556,26.394004069065996,35.300987507577965,17.60853963078713,14.393159607197472,4750.0,7350.0,750.0,-1086.0,204.0,448.0,-119.0,-104.0,85.0,-3.125,-212.9375,-144.4375,124.25,-78.9375,-17.8125,93625.0,4836.8,7417.9,955.8,351.0,439.0,1409.0,166.0,182.0,434.0,125.3125,132.8125,125.4375,194.3125,18.0625,-2.5,93665.0,4701.7,7165.7,663.65,-1086.0,-137.0,44.0,-323.0,-301.0,-315.0,-95.875,-212.9375,-144.4375,123.4375,-78.9375,-71.0,93625.0,LivingRoom ,EATING,6,0,4
4764.1375,7359.400000000001,854.6489583333333,-303.1458333333333,262.125,731.5416666666666,-48.354166666666664,-42.8125,-31.395833333333332,19.28125,-19.575520833333332,2.8815104166666665,149.44921875,-16.127604166666668,-20.14453125,93648.65625,4765.45,7355.075000000001,787.625,-148.5,296.5,711.5,-28.5,-36.5,-3.0,10.96875,-7.4375,-2.625,136.125,-2.90625,-20.75,93655.625,42.67585706925807,27.854679884883982,157.01072652393114,470.92507375234595,186.58562862265316,248.49170184640937,212.42655697894526,94.14896667267206,176.86005281052545,46.390030253438006,98.74972727400844,65.80695676325854,24.828087968452493,27.856558631056963,11.703685574450402,13.510301920339286,4750.0,7350.0,700.0,-1287.0,-137.0,326.0,-14.0,-121.0,-149.0,-3.125,-241.5,-144.4375,134.125,-68.9375,-28.375,93658.75,4836.8,7417.9,1109.0,383.0,611.0,1409.0,470.0,182.0,434.0,125.3125,184.4375,125.4375,194.3125,18.0625,-2.5,93665.25,4684.7,7306.1,663.65,-1287.0,-137.0,312.0,-790.0,-301.0,-422.0,-95.875,-241.5,-144.4375,123.9375,-68.9375,-40.0625,93625.0,LivingRoom ,EATING,9,0,1
4722.146874999999,7318.725000000001,967.7875,-235.625,371.5833333333333,728.7916666666666,-63.166666666666664,-46.3125,-52.854166666666664,9.10546875,12.643229166666666,-8.126302083333334,150.91536458333334,-9.606770833333334,-27.272135416666668,93654.21875,4727.275,7335.35,986.3,-148.0,400.0,722.0,-54.0,-33.0,-46.0,8.90625,23.78125,10.0,140.03125,-3.21875,-29.0625,93657.25,62.861422569596755,40.00571634686135,120.60364065109259,409.1221336138708,183.4786593577474,223.62553791030612,216.75815853337596,101.54888902249068,171.68315566681642,48.58352158762666,80.91809454620714,79.97077309533348,26.4784244816255,19.43506457656628,13.658773104125991,8.194546869977334,4750.0,7350.0,1100.0,-1287.0,-137.0,228.0,-14.0,-121.0,-198.0,-95.875,-241.5,-70.9375,124.9375,-46.75,-28.375,93657.25,4836.8,7392.5,1109.0,383.0,623.0,1409.0,470.0,182.0,434.0,125.3125,184.4375,125.4375,194.3125,18.0625,6.0625,93665.25,4623.9,7245.85,751.9,-1287.0,-137.0,228.0,-790.0,-301.0,-422.0,-95.875,-241.5,-168.125,117.4375,-47.9375,-49.625,93637.5,LivingRoom ,EATING,7,1,2
4676.825,7315.458333333333,989.0020833333334,-411.1875,229.8125,736.6458333333334,-34.8125,-42.8125,-15.25,1.9700520833333333,12.02734375,-11.259114583333334,147.3203125,-23.291666666666668,-18.23046875,93655.05208333333,4663.75,7331.85,986.3,-383.5,349.0,739.0,-20.0,-28.0,-0.5,-0.84375,11.4375,3.875,140.03125,-25.3125,-28.3125,93657.25,35.41097467819227,40.69765053249689,87.59296942928533,370.9179330147235,311.9119253926141,185.51027838512024,211.04679890912166,78.78023735602946,135.8684438806642,30.257793608694907,83.71286679396044,59.76421839303354,21.202413179501725,16.854687998757527,22.343713849286335,9.815039254499998,4650.0,7350.0,1100.0,-1287.0,-140.0,730.0,-107.0,-30.0,-198.0,-0.5625,-241.5,-70.9375,124.9375,-46.75,-28.375,93658.75,4747.65,7388.5,1109.0,383.0,623.0,1104.0,470.0,116.0,347.0,94.75,185.875,90.9375,175.125,13.25,12.75,93669.0,4623.9,7245.85,856.85,-1287.0,-323.0,228.0,-790.0,-216.0,-422.0,-63.9375,-241.5,-168.125,117.4375,-47.9375,-49.625,93637.5,LivingRoom ,EATING,5,0,1
4681.153125,7320.7375,932.3385416666666,-569.9375,120.79166666666667,697.2916666666666,-20.416666666666668,-26.854166666666668,-12.791666666666666,-4.388020833333333,3.2981770833333335,-11.794270833333334,153.65364583333334,-35.360677083333336,-11.024739583333334,93655.46875,4663.75,7329.5,898.375,-614.0,65.5,735.5,-22.5,-18.0,-1.5,-2.71875,0.625,-0.375,159.8125,-36.65625,-7.65625,93656.75,41.77206055748373,45.805727018131364,80.75482347729631,278.6849365914468,274.55565326102584,204.8780600834216,172.7577116957579,68.89770078717333,127.71859997722277,36.039661585117166,68.68577541683278,56.12986278028479,18.178566106280435,13.467530394646982,20.30358740469007,9.692290339299406,4650.0,7350.0,900.0,-1270.0,-140.0,730.0,-65.0,-18.0,-198.0,-107.1875,-227.0625,-70.9375,146.3125,-46.75,-8.0,93648.75,4765.95,7392.9,1095.6,-23.0,623.0,1220.0,578.0,116.0,457.0,73.75,185.875,91.4375,175.125,-2.9375,12.75,93669.0,4623.9,7245.85,839.7,-1270.0,-323.0,205.0,-379.0,-211.0,-331.0,-107.1875,-227.0625,-168.125,117.4375,-60.25,-49.625,93637.5,LivingRoom ,EATING,2,2,1
4717.366666666666,7325.160416666667,843.865625,-668.1041666666666,68.70833333333333,655.3958333333334,-12.75,-8.25,-13.5,0.4713541666666667,-0.6497395833333334,17.010416666666668,153.64973958333334,-43.311197916666664,-8.56640625,93657.84895833333,4732.375,7329.5,865.9,-663.5,88.5,727.0,-22.5,-10.0,-4.5,-0.4375,-5.46875,6.0,146.59375,-39.3125,-8.0,93656.75,46.85703282136735,40.85775917655145,59.194804757169024,257.36101306549773,193.6246597550225,240.96823659167052,167.89377340728325,63.51830026130349,134.58604777360523,30.26286366615282,94.5845362516308,29.610288264373427,13.6633618378734,13.274787943467803,15.209886892530697,6.86490837352913,4750.0,7350.0,900.0,-371.0,-140.0,517.0,82.0,-63.0,26.0,-2.1875,-227.0625,-49.3125,141.25,-38.9375,-8.0,93648.75,4775.45,7392.9,930.3,-23.0,453.0,1220.0,578.0,150.0,457.0,73.75,221.0625,91.4375,175.125,-24.5,12.75,93669.0,4643.45,7254.55,729.95,-1270.0,-323.0,159.0,-379.0,-211.0,-331.0,-107.1875,-227.0625,-49.3125,126.9375,-71.4375,-38.0625,93648.75,LivingRoom ,EATING,2,0,1
4735.512500000001,7282.625,831.4791666666666,-635.125,334.0,553.2083333333334,-17.875,-11.979166666666666,-16.833333333333332,6.984375,-1.4440104166666667,19.12890625,136.10416666666666,-40.946614583333336,-29.455729166666668,93658.28645833333,4735.75,7278.15,837.6,-596.0,228.5,526.0,-29.0,-9.0,-8.5,10.1875,-6.71875,7.75,141.6875,-36.65625,-25.9375,93659.25,27.340781829783676,60.61726283156875,63.43865929311401,256.28679289570493,254.71118395948488,209.31173517571705,158.52681161242094,64.67380988002148,124.71419809177205,31.35088370221124,87.61566466151858,28.95493967570996,14.76328250068512,14.946313441867488,19.478395860749604,5.7503444816638085,4750.0,7250.0,750.0,-378.0,64.0,517.0,-15.0,-63.0,-79.0,12.3125,-227.0625,-3.3125,116.5625,-38.9375,-8.0,93648.75,4775.45,7392.9,940.05,-23.0,777.0,1220.0,578.0,150.0,457.0,73.75,221.0625,91.4375,164.125,-21.6875,2.9375,93666.0,4673.6,7183.3,729.95,-1270.0,-59.0,159.0,-379.0,-145.0,-331.0,-107.1875,-227.0625,-49.3125,115.4375,-71.4375,-59.0625,93648.75,LivingRoom ,EATING,2,0,1
4709.659375,7241.740624999999,866.6281250000001,-578.5208333333334,537.3333333333334,479.2291666666667,-28.1875,-13.291666666666666,-10.5625,10.186197916666666,3.0403645833333335,9.963541666666666,128.32161458333334,-35.90234375,-45.571614583333336,93658.390625,4714.325,7249.225,843.45,-508.0,648.5,460.0,-29.0,-13.0,-7.0,6.71875,-1.40625,5.34375,127.03125,-31.3125,-56.03125,93659.25,47.14187804445757,37.255555998972206,100.15332283620438,213.65073801559856,228.3789621541571,140.30532656717125,90.81795123188724,59.263909699814796,78.7049178625115,15.465728076752098,74.88010084743985,26.888702077708377,10.323458793446871,14.769910303519202,16.44411974130505,4.478645029826709,4750.0,7250.0,750.0,-595.0,769.0,386.0,-15.0,-24.0,-79.0,-10.9375,-216.9375,-3.3125,116.5625,-29.6875,-58.6875,93666.0,4775.45,7318.7,1017.1,-315.0,777.0,812.0,290.0,150.0,168.0,55.25,221.0625,81.6875,146.875,-21.6875,-7.625,93666.0,4622.5,7183.3,729.95,-1126.0,38.0,159.0,-195.0,-145.0,-254.0,-10.9375,-216.9375,-43.5,115.4375,-71.4375,-61.875,93648.0,LivingRoom ,EATING,1,0,0
4694.358333333334,7198.464583333333,915.4979166666667,-454.8125,671.7083333333334,500.9791666666667,-40.645833333333336,-30.5625,-0.9375,2.4700520833333335,-8.194010416666666,8.90234375,120.77734375,-25.623697916666668,-54.401041666666664,93652.78125,4695.425,7204.525,938.45,-453.0,674.5,467.0,-36.5,-24.5,-7.0,2.15625,-12.125,5.78125,120.34375,-27.0625,-57.125,93655.25,35.638249433649754,45.93384345219518,72.11981531815526,166.5738167785388,78.94462328809537,113.97097233708675,61.85896435951062,46.745533977145996,46.15533728155898,17.748314225384174,24.29197617143815,24.803727233674245,6.590800253412755,8.530720159130754,5.753292208142178,10.678152407124896,4700.0,7200.0,950.0,-639.0,769.0,461.0,-15.0,-33.0,-18.0,-33.375,-36.875,-3.3125,116.5625,-34.3125,-58.6875,93628.75,4753.15,7270.7,1017.1,-64.0,777.0,767.0,56.0,145.0,168.0,55.25,45.0,47.5625,131.8125,-2.125,-40.0625,93666.0,4622.5,7104.55,762.2,-716.0,398.0,290.0,-164.0,-145.0,-81.0,-33.375,-46.375,-43.5,107.5,-36.3125,-61.875,93628.75,LivingRoom ,EATING,0,0,0
4705.991666666667,7197.708333333333,923.7020833333332,-247.10416666666666,687.3333333333334,525.6666666666666,-38.145833333333336,-28.958333333333332,-13.416666666666666,-2.6393229166666665,-13.486979166666666,6.622395833333333,117.81119791666667,-13.015625,-53.14453125,93652.30208333333,4695.425,7209.725,927.675,-352.0,688.0,548.5,-35.5,-31.5,-18.0,1.34375,-18.96875,6.3125,118.5625,-21.5625,-51.3125,93655.25,52.28001258905802,53.836228541253654,56.521132329622475,336.85385678856835,38.28467463694497,109.39880845228683,52.29661295868361,21.30224075051514,31.926666859188238,10.447064826762109,23.210039721463147,22.373086801352052,8.934077137888403,19.621664661010517,5.151965196631333,10.870362588314084,4700.0,7200.0,900.0,-639.0,708.0,646.0,-158.0,-33.0,-34.0,2.625,-36.875,-43.5,107.5,-29.6875,-57.125,93628.75,4840.35,7284.4,1017.1,293.0,769.0,684.0,56.0,35.0,95.0,9.5,45.0,47.5625,131.8125,18.5625,-46.6875,93664.0,4622.5,7103.9,799.85,-716.0,614.0,290.0,-158.0,-87.0,-81.0,-33.375,-47.4375,-43.5,107.25,-36.3125,-61.875,93628.75,LivingRoom ,EATING,1,0,0
4788.846875,7212.091666666667,822.834375,33.791666666666664,677.6875,557.0833333333334,-39.208333333333336,-34.645833333333336,-19.270833333333332,-3.3984375,-17.873697916666668,11.048177083333334,112.09375,4.091145833333333,-50.993489583333336,93650.78125,4752.375,7223.75,873.075,174.5,683.5,549.5,-34.5,-38.0,-23.0,0.09375,-14.71875,4.65625,109.4375,12.21875,-51.3125,93650.25,89.95373302854803,63.80940730795813,112.25161665719675,348.3787959405579,26.322190500905457,83.79225408098073,37.254134903066614,18.83465522882361,29.29798452390745,9.749400085539905,13.758655940719716,16.008824235033224,6.147537779036487,20.26200129630515,3.100227331214331,11.296961674941914,4700.0,7250.0,900.0,-639.0,688.0,646.0,-38.0,-38.0,-34.0,-0.75,-36.875,2.375,109.375,-36.3125,-52.6875,93660.25,4922.3,7296.9,962.8,378.0,724.0,684.0,34.0,35.0,95.0,5.75,8.5625,47.5625,127.125,23.9375,-46.6875,93664.0,4677.95,7103.9,606.65,-716.0,614.0,290.0,-158.0,-87.0,-81.0,-33.375,-47.4375,-18.875,107.25,-36.3125,-61.0,93628.75,LivingRoom ,EATING,1,0,0
4860.045833333334,7244.030208333333,738.2395833333334,294.7708333333333,690.0208333333334,547.5208333333334,-25.604166666666668,-29.6875,-21.604166666666668,0.69921875,-9.861979166666666,3.3463541666666665,108.31380208333333,19.2734375,-51.640625,93655.49479166667,4903.25,7253.7,691.175,342.0,691.5,533.5,-23.0,-28.0,-22.0,0.5,-5.75,2.3125,108.5,22.375,-52.375,93659.75,87.21119867172374,41.87463145545451,105.57616286728809,109.26451207638637,10.765369188228766,38.20994054873141,19.607575157221742,12.561603519404814,12.835687589160342,1.8274855673855976,12.680164124448902,3.765657876684709,1.4030912859839442,6.495108954112924,1.5419391890622527,7.373127166338101,4900.0,7250.0,650.0,341.0,686.0,513.0,-23.0,-19.0,-34.0,0.8125,-4.5,0.375,109.375,23.9375,-52.6875,93660.25,4972.55,7296.9,910.25,393.0,714.0,646.0,23.0,-9.0,6.0,5.375,5.0,19.1875,110.375,24.5625,-47.5,93664.0,4677.95,7103.9,606.65,11.0,667.0,495.0,-81.0,-54.0,-61.0,-3.1875,-47.4375,-0.5625,105.625,0.3125,-53.0,93643.25,LivingRoom ,EATING,0,0,0
4944.64375,7270.380208333333,696.2604166666666,373.6666666666667,688.5625,524.2291666666666,-20.0,-24.479166666666668,-17.083333333333332,-0.052083333333333336,-3.1341145833333335,1.0963541666666667,107.31119791666667,23.811197916666668,-52.736979166666664,93656.44791666667,4920.175,7264.975,691.175,383.5,688.0,523.5,-15.5,-22.0,-16.5,-0.09375,-2.6875,0.96875,106.71875,24.1875,-52.65625,93657.5,46.198745751833485,25.35304492935146,53.38949609651431,33.98581264282065,9.382886753541642,14.20254634546339,13.748500885396368,10.685025479779918,13.23250886189546,0.9636282187501729,4.132809933853391,1.553027581780022,1.7961010513307185,1.6410059503684025,0.41816276173449307,7.295065064191007,4900.0,7250.0,750.0,400.0,686.0,519.0,-7.0,-28.0,-23.0,-0.8125,-4.5,-0.1875,106.0,23.9375,-52.625,93660.25,5012.85,7334.65,776.45,426.0,714.0,554.0,-2.0,-6.0,12.0,2.0625,5.0,4.75,110.375,26.3125,-51.8125,93668.5,4858.45,7237.0,606.65,278.0,667.0,495.0,-70.0,-48.0,-61.0,-3.1875,-14.5,-2.9375,104.75,19.1875,-53.8125,93643.25,LivingRoom ,EATING,0,0,0
4972.110416666666,7302.180208333334,720.9947916666666,402.4791666666667,688.5833333333334,519.9791666666666,-13.0625,-20.166666666666668,-11.208333333333334,-0.11328125,-1.26953125,0.2578125,106.03125,25.229166666666668,-53.09765625,93657.17708333333,4984.15,7293.95,745.7,400.5,688.0,517.0,-11.5,-19.0,-12.5,-0.15625,-1.25,0.3125,105.90625,25.28125,-53.09375,93656.75,36.154657388592774,52.447160582315284,46.10401888558612,18.54837216386058,6.856689025846449,14.486221749213144,8.009054052040767,6.21026375337834,8.700595072173458,0.7998354478788188,2.9166489559049413,1.0246808824723215,0.7893068599403759,0.9359768951352113,0.44380080058332955,5.407087137457351,5000.0,7250.0,750.0,400.0,686.0,510.0,-7.0,-15.0,-14.0,-0.8125,-3.25,-0.1875,105.8125,26.3125,-53.5,93650.25,5012.85,7384.3,770.45,442.0,702.0,554.0,5.0,-6.0,12.0,2.0625,5.0,2.25,108.3125,26.375,-52.3125,93668.5,4900.4,7237.0,622.55,363.0,676.0,497.0,-33.0,-37.0,-33.0,-1.4375,-9.375,-2.9375,104.75,23.8125,-53.8125,93650.25,LivingRoom ,EATING,0,0,0
4990.513829787234,7342.078723404255,757.944680851064,373.40425531914894,675.0425531914893,536.2978723404256,-8.404255319148936,-30.04255319148936,-10.936170212765957,-0.776595744680851,8.195478723404255,-6.480053191489362,105.20744680851064,23.18617021276596,-52.180851063829785,93654.12765957447,4988.5,7358.0,753.45,411.0,682.0,515.0,-10.0,-25.0,-14.0,-0.25,-0.5625,-0.375,105.5625,25.9375,-53.3125,93657.5,12.424973546151794,39.299162985722184,16.260973666107528,102.43230204987948,21.620197327266354,55.465584665909496,20.054989159664597,18.273237078840204,12.44361938001744,3.680048308163397,20.59351853395221,18.698657542267004,1.3680100480896973,6.986952725147155,2.6428043342394707,9.5358124098775,5000.0,7350.0,750.0,400.0,688.0,510.0,-7.0,-25.0,-21.0,0.25,-3.25,-0.1875,105.125,26.3125,-53.375,93639.5,5012.85,7384.3,818.55,442.0,702.0,716.0,64.0,-6.0,32.0,15.0,69.75,2.25,109.0625,26.5,-45.0,93668.5,4953.0,7260.65,730.4,-32.0,609.0,497.0,-33.0,-85.0,-45.0,-11.0625,-9.375,-90.375,101.125,-3.8125,-53.8125,93637.75,LivingRoom ,EATING,0,0,0
4934.614893617021,7374.531914893616,794.5489361702129,14.574468085106384,621.9574468085107,531.5957446808511,-4.957446808510638,-1.425531914893617,-10.170212765957446,1.315159574468085,14.5625,-26.261968085106382,118.0,0.4654255319148936,-48.215425531914896,93649.38829787234,4982.05,7370.35,768.25,382.0,655.0,513.0,-12.0,-24.0,-13.0,-0.25,1.4375,-3.125,105.8125,23.6875,-52.5,93650.25,82.48718999025503,17.775598276276256,46.841891193490405,516.2822258467305,81.43921644974365,146.51601182338075,116.56980693555118,78.98672003979972,107.72192848274071,12.850209336861262,60.90963827938963,35.976419469745586,20.33764330138445,32.461740148308294,6.735590100337811,11.866765853524988,5000.0,7350.0,750.0,414.0,645.0,510.0,-20.0,-50.0,-21.0,-0.375,-1.25,-1.0,105.125,26.3125,-53.5,93630.0,4999.05,7427.05,897.55,442.0,692.0,747.0,554.0,276.0,406.0,39.9375,240.0,1.0,165.5,26.5,-30.0,93666.75,4727.55,7341.5,743.65,-1260.0,382.0,-308.0,-371.0,-126.0,-559.0,-47.375,-285.1875,-101.375,101.125,-65.0625,-53.75,93630.0,LivingRoom ,EATING,4,0,1
4818.421276595745,7380.489361702128,842.8393617021275,-309.17021276595744,432.468085106383,606.7872340425532,1.6382978723404256,-6.595744680851064,-4.361702127659575,-2.11968085106383,14.84441489361702,-14.472074468085106,135.46808510638297,-19.97473404255319,-34.98936170212766,93648.23936170213,4815.25,7379.6,844.65,-465.0,542.0,563.0,-8.0,-33.0,-14.0,-1.5625,20.5,-7.0,139.4375,-27.1875,-43.6875,93645.5,146.77562280742933,25.15529362599067,56.27308215897434,472.969266358311,271.97521075209187,238.94004488758014,142.03037420580068,90.03421078641938,134.99105051365035,32.2938245737858,88.87160116293809,54.85577961484043,25.521240329150377,29.260474769887974,19.300564057904733,12.52887506735078,5000.0,7400.0,850.0,416.0,470.0,366.0,-8.0,-67.0,-45.0,-83.5625,65.25,-101.375,105.125,26.4375,-53.375,93645.5,4993.15,7427.05,941.95,424.0,682.0,1195.0,554.0,276.0,406.0,99.0625,240.0,119.0625,169.125,26.5,6.3125,93666.75,4604.85,7303.75,753.45,-1260.0,-191.0,-308.0,-371.0,-152.0,-559.0,-83.5625,-285.1875,-101.375,101.125,-65.0625,-53.375,93630.0,LivingRoom ,EATING,5,1,2
4704.175,7345.181250000001,897.3354166666668,-582.75,380.7083333333333,613.9375,24.895833333333332,20.291666666666668,2.1458333333333335,0.2877604166666667,0.2630208333333333,-7.713541666666667,144.16666666666666,-38.268229166666664,-31.407552083333332,93652.70833333333,4658.25,7369.725,893.5,-579.5,452.0,598.0,-6.5,14.5,2.0,0.25,10.90625,-6.0,137.71875,-40.59375,-36.6875,93653.5,106.98816349325551,63.78308205042357,42.08241528736725,280.2518244479115,247.28319180719623,279.2893265513953,196.61423939075644,104.68716484015366,167.7574223342352,33.24508477203644,104.4145834916445,53.17965716692656,15.87900107338785,12.80599509453517,17.005474662039635,12.31839712793099,4600.0,7400.0,950.0,-1260.0,406.0,366.0,-8.0,-79.0,-559.0,-22.625,65.25,-101.375,132.625,-65.0625,-38.75,93645.5,4940.35,7427.05,955.7,18.0,857.0,1195.0,554.0,326.0,406.0,99.0625,240.0,119.0625,169.125,-9.4375,6.3125,93667.25,4604.85,7233.65,832.9,-1260.0,-191.0,-308.0,-371.0,-183.0,-559.0,-83.5625,-285.1875,-101.375,113.9375,-65.0625,-52.5625,93630.0,LivingRoom ,EATING,3,1,2
4658.317708333333,7313.017708333333,898.5875,-576.5416666666666,358.1041666666667,591.9791666666666,35.458333333333336,-2.7708333333333335,-13.458333333333334,-0.4869791666666667,1.1041666666666667,9.06640625,141.2265625,-39.18359375,-32.473958333333336,93655.13541666667,4658.25,7297.299999999999,896.125,-537.0,427.0,619.0,64.0,-13.5,3.5,-1.21875,5.9375,-0.375,134.8125,-40.40625,-36.6875,93654.625,38.63452387518263,57.329290988767895,42.88850649488395,334.04388540412845,246.61437203234487,414.72823655381296,222.37317287430244,108.77132749211607,276.3054860678768,36.9906385474554,138.0209307172144,38.46384218060145,14.422905980472262,11.169789457175085,18.422065002193307,9.375721012463314,4700.0,7250.0,950.0,-479.0,299.0,614.0,-618.0,-79.0,-746.0,-22.625,-316.75,-64.5,129.75,-42.875,-38.9375,93645.5,4731.55,7417.7,955.7,18.0,857.0,1195.0,506.0,326.0,558.0,99.0625,329.625,119.0625,169.125,-13.9375,6.3125,93667.25,4604.85,7233.65,800.75,-1455.0,-191.0,-353.0,-618.0,-221.0,-746.0,-83.5625,-316.75,-64.5,128.0,-58.5,-62.5,93642.25,LivingRoom ,EATING,5,1,5
4683.640625,7291.054166666666,873.36875,-643.0,461.2708333333333,504.5625,42.375,16.125,-24.395833333333332,12.522135416666666,-3.8385416666666665,-14.7890625,142.75651041666666,-44.41796875,-42.076822916666664,93656.78125,4698.85,7291.7,865.675,-667.5,460.5,457.0,10.0,12.5,-19.5,11.375,-2.28125,-9.875,135.71875,-44.0,-40.46875,93658.25,43.00824593900571,30.715913183479255,54.717378919782554,334.26343286873526,138.24196172750698,422.4882174486985,226.17359412816313,112.96537315440911,302.1167689982287,31.592602007320863,129.33111653816675,28.728480107989693,18.610296207496006,9.131684343598957,8.041481959912073,8.921141665561716,4700.0,7300.0,800.0,-920.0,406.0,614.0,506.0,36.0,-119.0,-64.375,-316.75,-84.625,132.625,-50.125,-38.9375,93642.25,4744.55,7365.95,955.7,18.0,857.0,1288.0,506.0,326.0,558.0,87.125,329.625,46.25,194.5,-25.375,-30.25,93667.25,4607.25,7233.65,800.6,-1455.0,166.0,-353.0,-618.0,-221.0,-746.0,-64.375,-316.75,-84.625,128.0,-60.625,-62.5,93642.25,LivingRoom ,EATING,7,0,8
4725.083333333333,7322.769791666667,822.6458333333334,-708.5208333333334,379.8958333333333,464.4166666666667,6.645833333333333,-8.520833333333334,-45.416666666666664,-0.8463541666666666,14.920572916666666,-3.9036458333333335,161.96484375,-47.69921875,-38.506510416666664,93650.05208333333,4724.575000000001,7320.5,816.4000000000001,-739.0,381.5,397.0,-12.5,-0.5,-46.0,10.59375,-2.28125,-14.34375,156.28125,-48.375,-37.25,93655.75,25.569946482551938,33.747677208616125,35.24944972157379,367.40047079408635,175.9215540340605,405.28864593622984,246.7458412922809,117.15419727741859,302.208947959769,50.309945188097196,146.93759685756564,54.06576281251895,27.94156464746509,11.242873453837442,11.190647509686801,16.49354792720324,4700.0,7300.0,800.0,-920.0,329.0,397.0,-79.0,-312.0,-120.0,-145.625,-316.75,-84.625,136.375,-42.875,-35.9375,93612.5,4767.2,7378.7,903.05,8.0,797.0,1288.0,506.0,275.0,558.0,87.125,428.75,169.625,206.75,-22.1875,-10.8125,93667.25,4676.2,7264.35,760.25,-1455.0,-81.0,-353.0,-618.0,-312.0,-746.0,-145.625,-316.75,-84.625,128.0,-72.4375,-62.5,93612.5,LivingRoom ,EATING,7,0,7
4745.95,7349.148958333334,778.9541666666668,-778.5416666666666,303.125,469.3958333333333,-10.5,-7.333333333333333,-14.395833333333334,-6.5625,0.7708333333333334,3.6041666666666665,166.12239583333334,-52.01953125,-34.071614583333336,93649.25520833333,4751.075,7354.675,786.175,-807.0,328.0,397.0,-20.5,3.5,-44.5,7.53125,-2.28125,-6.6875,158.09375,-51.59375,-31.0625,93653.25,21.298591502726183,30.59933508105167,42.22191479140285,325.0709224306737,167.54632576274463,300.95463287030367,225.2085558255309,115.05028194614096,240.13451368581022,51.77777835246527,120.38924592392465,53.56860679414062,24.048342955910467,12.38361480344356,13.402208043802233,16.06746825501412,4750.0,7350.0,800.0,-920.0,198.0,397.0,-79.0,-312.0,-119.0,-145.625,-257.1875,-84.625,143.9375,-60.125,-27.875,93653.25,4790.65,7396.9,840.55,8.0,797.0,1288.0,506.0,275.0,641.0,87.125,428.75,169.625,206.75,-22.1875,-10.8125,93666.5,4706.75,7283.85,687.5,-1499.0,-81.0,-278.0,-562.0,-312.0,-668.0,-145.625,-257.1875,-84.625,136.375,-83.125,-89.75,93612.5,LivingRoom ,EATING,5,0,3
4773.095918367348,7332.4765306122445,740.365306122449,-777.6530612244898,249.3469387755102,518.3673469387755,-24.306122448979593,-7.346938775510204,-9.10204081632653,-15.98469387755102,-0.5714285714285714,12.942602040816327,159.85841836734693,-51.099489795918366,-27.176020408163264,93649.57653061225,4767.2,7350.55,730.8,-776.0,249.0,515.0,-21.0,8.0,-46.0,2.375,-2.1875,0.625,146.875,-49.5,-25.75,93653.25,23.138137792251072,48.54754338751429,38.51259020881142,303.56448731560096,142.10640834430026,253.3082520926456,211.76462996308274,116.88109182348674,216.66691457337987,46.60024080553129,116.03310860123787,45.674247174280694,23.329019000473362,12.066782745538212,11.853603760635757,15.858439860084545,4750.0,7350.0,700.0,-550.0,198.0,598.0,-21.0,-312.0,-40.0,-145.625,-257.1875,-43.9375,142.9375,-60.125,-27.875,93653.25,4814.25,7396.9,815.6,8.0,507.0,1130.0,399.0,182.0,641.0,49.3125,428.75,169.625,206.75,-22.1875,-10.8125,93667.25,4731.7,7241.1,677.8,-1499.0,-81.0,-137.0,-562.0,-312.0,-326.0,-145.625,-257.1875,-43.9375,141.6875,-83.125,-89.75,93612.5,LivingRoom ,EATING,3,0,3
4777.066666666667,7296.4375,745.4250000000001,-636.6666666666666,196.625,643.8958333333334,-11.854166666666666,6.791666666666667,-1.4166666666666667,-9.216145833333334,-21.415364583333332,3.375,144.43619791666666,-41.553385416666664,-19.889322916666668,93655.94791666667,4776.799999999999,7272.55,730.775,-679.5,213.0,641.5,-26.5,12.5,-43.0,-3.625,-6.875,2.125,143.96875,-46.90625,-21.65625,93653.5,23.656071447137116,57.467666672364125,51.36757297353546,308.0624648825357,158.9174313912731,296.1556692143532,163.89617751352867,110.7144992971107,215.80308531438024,36.741278361363754,76.96497123241026,23.211794421499548,3.5449124838994552,17.92005364770405,15.691148488500994,8.781774879570815,4800.0,7250.0,700.0,-550.0,262.0,598.0,-21.0,-68.0,-127.0,-81.5625,-257.1875,-41.3125,142.9375,-51.125,-20.3125,93666.75,4814.25,7396.9,867.65,262.0,502.0,1352.0,502.0,182.0,641.0,49.3125,159.375,65.1875,156.25,-9.4375,0.6875,93667.25,4722.55,7229.1,677.8,-1499.0,-157.0,-137.0,-469.0,-263.0,-289.0,-81.5625,-257.1875,-41.3125,136.4375,-83.125,-89.75,93642.25,LivingRoom ,EATING,2,0,2
4759.665625000001,7247.292708333334,792.2697916666667,-448.4791666666667,50.083333333333336,797.1666666666666,-2.875,9.520833333333334,-16.458333333333332,-7.77734375,-14.859375,-0.9192708333333334,141.38932291666666,-27.951822916666668,-5.125,93655.921875,4768.375,7243.125,809.225,-456.0,32.5,797.0,-29.0,9.0,-40.0,-3.625,-25.03125,0.65625,142.1875,-21.90625,-4.375,93653.5,40.716791920311174,27.95066700681546,73.43570841333556,281.1661119969137,236.1081462753639,240.06048292251873,149.57252919357117,95.89777127473293,168.07128152590155,31.236797493681017,76.4279277595719,20.78903962683076,3.7493625252346385,15.938885732327309,15.573564275891346,10.481640008158948,4800.0,7250.0,700.0,-173.0,-176.0,702.0,-281.0,-68.0,-169.0,-68.5,-250.1875,-41.3125,138.4375,-49.5,17.0,93666.75,4814.25,7312.65,897.35,262.0,502.0,1352.0,502.0,182.0,401.0,49.1875,199.0,65.1875,149.0625,-4.25,17.0,93668.75,4691.95,7185.65,677.8,-922.0,-393.0,328.0,-281.0,-185.0,-289.0,-68.5,-250.1875,-41.3125,134.625,-51.125,-29.0625,93638.0,LivingRoom ,EATING,1,0,1
4725.420212765958,7217.934042553192,842.0765957446812,-367.48936170212767,-102.8936170212766,818.3617021276596,-1.6595744680851063,7.042553191489362,-23.659574468085108,-2.6888297872340425,-2.956117021276596,5.922872340425532,139.9029255319149,-23.53191489361702,7.361702127659575,93653.76063829787,4712.3,7230.8,844.95,-303.0,-98.0,880.0,-17.0,10.0,-39.0,1.1875,-24.75,5.75,139.125,-17.4375,11.5,93653.5,31.730037647065277,27.3705611973708,36.928573612159425,345.6662044290219,173.99090856340658,293.8693458229883,212.49974696616593,95.0500914728212,182.08410342903113,32.17364225054493,130.33845594051985,20.164562503869984,3.3787923668767195,19.50680479939577,9.187896843047032,10.998388894714124,4700.0,7250.0,850.0,-173.0,-176.0,954.0,211.0,-27.0,-169.0,-68.5,-400.125,-33.1875,138.4375,-85.9375,17.0,93666.75,4795.7,7260.1,897.35,262.0,285.0,1352.0,502.0,181.0,532.0,60.375,264.875,65.1875,149.0625,-1.6875,20.25,93668.75,4687.95,7180.0,733.1,-1592.0,-393.0,-143.0,-614.0,-207.0,-301.0,-68.5,-400.125,-33.1875,134.625,-85.9375,-8.8125,93638.0,LivingRoom ,EATING,4,0,2
4696.214583333333,7204.133333333332,837.2489583333332,-526.75,-104.47916666666667,652.75,4.333333333333333,15.6875,-16.416666666666668,1.51953125,25.26953125,3.7734375,140.84895833333334,-38.220052083333336,-2.9791666666666665,93648.5,4700.049999999999,7198.7,843.1,-423.0,-93.5,772.5,-4.0,29.5,-17.0,2.09375,42.84375,5.34375,140.84375,-33.5625,10.90625,93649.25,19.82297441647727,20.44460427525149,41.6158450920035,406.4536036436307,157.89101945589778,377.09395522048584,206.1613015808339,77.12276928737188,157.6907603080308,27.775251941022976,131.38586316369916,14.667732991968126,3.673325926177676,28.920599844107215,46.69718816519322,12.466337652578046,4700.0,7200.0,850.0,-1592.0,-176.0,954.0,211.0,32.0,-48.0,-51.75,-400.125,-26.625,141.0,-88.9375,17.0,93627.75,4728.05,7244.85,897.35,170.0,180.0,1225.0,460.0,144.0,532.0,60.375,264.875,29.6875,147.125,-1.6875,20.25,93668.75,4641.7,7179.1,724.3,-1592.0,-393.0,-143.0,-614.0,-207.0,-301.0,-51.75,-400.125,-26.625,134.625,-88.9375,-179.75,93627.75,LivingRoom ,EATING,9,0,5
4682.388775510204,7205.785714285715,798.354081632653,-733.6122448979592,92.91836734693878,304.6734693877551,-1.5510204081632653,17.0,-10.959183673469388,-0.5612244897959183,31.747448979591837,14.521683673469388,132.83673469387756,-55.21683673469388,-48.951530612244895,93648.99489795919,4688.55,7200.1,806.2,-809.0,56.0,141.0,-11.0,25.0,0.0,-1.25,22.625,12.375,140.875,-57.3125,-4.625,93648.75,24.294937455556237,20.71390434788507,51.487795718919614,360.9283063808362,259.17447764767576,426.884029321543,180.06249623678,65.73019346794389,138.49758710047286,27.96799780702886,113.34091888235378,20.18460759973165,18.50123085153786,25.8767332288639,70.82889913967028,10.87326252834006,4700.0,7200.0,850.0,-1011.0,-373.0,-149.0,-17.0,-1.0,-58.0,3.0,12.0625,17.0625,141.0,-88.9375,-179.75,93644.25,4716.6,7246.05,864.45,170.0,582.0,1225.0,460.0,144.0,532.0,60.375,264.875,55.625,147.125,-1.6875,20.25,93660.75,4640.85,7179.1,713.75,-1592.0,-373.0,-198.0,-614.0,-207.0,-301.0,-48.5625,-400.125,-26.625,86.9375,-88.9375,-179.75,93627.75,LivingRoom ,EATING,4,0,6
4675.652083333333,7219.484375,761.49375,-843.1666666666666,284.0208333333333,7.25,-1.2083333333333333,13.5625,0.75,3.3971354166666665,23.513020833333332,8.251302083333334,125.1875,-62.854166666666664,-92.2734375,93652.4375,4671.55,7215.075,772.075,-872.5,350.5,-100.0,-9.0,19.5,8.0,5.3125,17.21875,5.15625,129.84375,-62.15625,-111.125,93649.0,35.212213727162585,20.967003347839096,68.7441507182882,183.3246548558436,202.29065770577606,335.147506426394,91.25320357730226,37.56124431469337,62.47671906824105,27.258149796278886,47.32694005576644,22.98210410962713,21.107103239924967,15.713807904682055,60.1430636279849,13.050586927373656,4650.0,7200.0,800.0,-1023.0,-76.0,-175.0,-11.0,-14.0,-31.0,3.0,12.0625,5.5625,143.5625,-88.9375,-179.75,93660.75,4754.2,7255.85,856.9,-156.0,582.0,840.0,326.0,80.0,161.0,56.1875,209.0,55.625,147.125,-29.6875,7.6875,93675.75,4592.95,7179.1,552.75,-1119.0,-76.0,-425.0,-175.0,-102.0,-196.0,-48.5625,-76.375,-33.0,86.9375,-88.9375,-179.75,93627.75,LivingRoom ,EATING,0,0,2
4629.871276595744,7214.400000000001,645.9265957446809,-868.5106382978723,391.8085106382979,-227.14893617021278,-13.02127659574468,9.063829787234043,4.446808510638298,3.0372340425531914,3.0691489361702127,9.523936170212766,113.14627659574468,-61.92553191489362,-124.80718085106383,93657.12765957447,4648.65,7209.8,718.25,-869.0,381.0,-235.0,-12.0,14.0,6.0,-0.6875,3.25,2.6875,116.1875,-60.125,-123.5,93658.0,77.40951782893875,27.387818618788387,158.5655747807525,77.64771962284016,112.81066059280813,112.70025244433829,39.87398048946211,31.420295473190127,36.7972166425186,24.395920716749888,19.83280673966718,21.67952080847194,19.7426129751073,8.890798842553009,16.931301156831424,8.785003331460098,4650.0,7200.0,800.0,-871.0,374.0,-325.0,-11.0,14.0,-31.0,2.1875,12.0625,1.25,131.4375,-60.125,-177.6875,93660.75,4754.2,7255.85,844.5,-699.0,582.0,25.0,72.0,77.0,119.0,56.1875,28.125,55.625,144.625,-49.5625,-103.5625,93675.75,4500.5,7157.45,393.2,-1023.0,53.0,-425.0,-129.0,-102.0,-98.0,-41.25,-76.375,-33.0,74.6875,-85.125,-177.6875,93644.25,LivingRoom ,EATING,0,0,0
4560.199999999999,7225.803260869567,561.9097826086955,-854.7608695652174,400.39130434782606,-302.80434782608694,-10.76086956521739,8.891304347826088,2.869565217391304,8.525815217391305,-2.645380434782609,-2.3260869565217392,90.70923913043478,-59.34510869565217,-128.0421195652174,93662.57065217392,4522.75,7217.0,531.225,-859.0,389.5,-310.5,-7.5,11.0,4.0,0.46875,-0.09375,0.125,94.15625,-59.96875,-129.625,93657.25,95.79875782075676,43.17416588935502,140.2256972881636,49.58816381293185,45.42563068032533,51.01399353345985,37.78135035679123,23.00456791438466,27.972691997456035,17.361658427363153,16.647244174398754,8.28287759732513,34.017551172028035,3.3264183255885893,5.218624072795841,20.624665858807013,4500.0,7200.0,550.0,-871.0,391.0,-308.0,-7.0,14.0,-6.0,-0.875,-0.6875,-2.5625,131.9375,-59.375,-129.625,93640.75,4754.2,7328.15,844.5,-699.0,558.0,-175.0,72.0,43.0,66.0,56.1875,25.625,6.6875,132.1875,-49.5625,-111.0625,93709.5,4446.15,7157.45,393.2,-1023.0,349.0,-425.0,-129.0,-102.0,-98.0,-10.3125,-76.375,-33.0,34.0,-64.1875,-134.5625,93640.75,LivingRoom ,EATING,0,0,0
4516.843617021276,7252.187234042554,498.7904255319148,-855.5957446808511,390.531914893617,-243.87234042553192,-10.638297872340425,10.617021276595745,-7.23404255319149,-4.335106382978723,-21.33909574468085,3.271276595744681,60.7593085106383,-59.753989361702125,-121.19015957446808,93664.39893617021,4506.45,7241.55,522.15,-862.0,389.0,-308.0,-10.0,10.0,1.0,-0.875,-0.8125,0.75,47.9375,-60.0625,-129.625,93658.0,48.50314155784734,58.26155741668725,52.414381156214176,70.06942506774763,21.90081501742303,200.96924024005315,36.69049487852518,11.341637776620235,28.568158594428354,8.171090275647703,48.428883779032375,9.832524885169821,37.31937927881455,3.710146108527735,23.845054196221103,22.660218180196278,4500.0,7300.0,550.0,-871.0,391.0,-308.0,-14.0,7.0,1.0,-0.875,-0.6875,0.75,24.75,-59.375,-129.625,93709.5,4650.95,7328.15,561.05,-501.0,491.0,576.0,132.0,41.0,36.0,11.5,22.1875,36.9375,132.1875,-40.25,-38.25,93709.5,4446.15,7157.45,393.2,-1089.0,354.0,-373.0,-189.0,-44.0,-140.0,-26.875,-160.75,-8.0,21.875,-66.5625,-134.5625,93636.25,LivingRoom ,EATING,0,0,0
4599.432291666667,7271.982291666666,574.4572916666667,-721.6041666666666,414.5,104.45833333333333,-11.3125,7.125,-9.520833333333334,-7.66796875,-25.774739583333332,5.213541666666667,34.20703125,-48.86328125,-87.79557291666667,93658.109375,4533.375,7257.075000000001,542.425,-850.5,394.5,-270.0,-5.0,9.0,0.5,-0.875,-1.875,0.75,27.46875,-59.4375,-123.5,93647.0,138.9525387706419,37.39647339383885,79.51680739608646,240.81048782413797,45.287262781192304,487.2207310656453,84.61330217084853,27.799146627036762,75.22052390346704,14.585007126748362,58.98956185216608,11.899441764947458,13.48610492219332,16.67839896581301,45.98146007695275,26.141793505537645,4500.0,7250.0,550.0,-852.0,391.0,-324.0,-5.0,7.0,1.0,-0.875,-3.75,0.75,24.5625,-59.375,-129.625,93709.5,4834.7,7328.15,772.3,-51.0,576.0,1165.0,186.0,76.0,331.0,16.4375,87.75,36.9375,71.4375,-11.3125,-21.9375,93709.5,4446.15,7208.6,461.85,-1089.0,336.0,-324.0,-384.0,-120.0,-217.0,-52.6875,-160.75,-14.25,21.875,-66.5625,-130.3125,93631.5,LivingRoom ,EATING,1,0,4
4697.813541666667,7263.539583333334,667.9875000000001,-572.0625,417.0,475.5833333333333,-23.708333333333332,-3.6666666666666665,-10.354166666666666,-7.0703125,-24.852864583333332,9.013020833333334,24.259114583333332,-36.3046875,-53.973958333333336,93649.953125,4739.475,7251.25,657.3,-510.5,399.0,656.0,-16.0,5.5,-7.0,-5.65625,-5.34375,3.34375,24.65625,-34.0,-34.5,93643.375,117.59387455985207,34.47933232052941,115.33620443378344,257.7418637921745,74.95275107437365,461.7940884656753,92.70313137848088,62.91342695148741,109.32899589757345,27.30713201606531,60.57850060570604,17.93055994039652,3.5206691552063085,18.089788913422424,39.7112392004915,18.407666089911007,4800.0,7250.0,800.0,-874.0,390.0,-311.0,-16.0,7.0,-95.0,-26.875,-160.75,-1.6875,24.5625,-60.625,-35.25,93631.5,4834.7,7327.85,813.45,-51.0,657.0,1165.0,186.0,187.0,331.0,76.1875,87.75,54.375,32.875,-11.3125,-21.9375,93709.5,4473.8,7211.05,512.45,-1089.0,173.0,-311.0,-384.0,-291.0,-244.0,-52.6875,-160.75,-28.4375,16.6875,-66.5625,-128.75,93631.5,LivingRoom ,EATING,2,0,4
4736.844791666666,7234.923958333333,733.3729166666667,-416.3125,417.5,777.3333333333334,-27.416666666666668,-8.416666666666666,-2.1041666666666665,-3.2682291666666665,-3.9557291666666665,6.192708333333333,22.48046875,-23.700520833333332,-28.979166666666668,93648.28125,4739.475,7238.049999999999,754.325,-409.5,420.5,740.5,-21.0,-7.5,-5.5,-5.78125,1.15625,3.84375,21.5,-22.4375,-28.71875,93647.0,65.05592703596551,14.606731141378784,70.02922183246787,161.65555136534607,90.35980089077928,168.47177089546034,95.71429856794965,71.69225998560773,135.0166639964771,32.096106714246865,42.78307238812615,16.58003053241078,3.065989551491284,6.4145487676978306,4.614931776464138,12.826234854076034,4800.0,7250.0,800.0,-342.0,335.0,968.0,-97.0,-86.0,163.0,-52.6875,-11.75,-28.4375,20.25,-24.9375,-35.25,93631.5,4834.7,7266.15,813.45,-51.0,657.0,1165.0,186.0,187.0,331.0,76.1875,87.75,54.375,29.5625,-11.3125,-21.9375,93670.25,4616.8,7208.85,572.5,-964.0,173.0,528.0,-384.0,-291.0,-244.0,-52.6875,-157.0,-28.4375,16.6875,-36.8125,-37.5625,93631.5,LivingRoom ,EATING,1,0,0
4683.179166666667,7232.70625,752.125,-417.875,422.1041666666667,770.6041666666666,-22.666666666666668,-11.770833333333334,-5.916666666666667,1.0572916666666667,0.5611979166666666,0.515625,20.930989583333332,-23.899739583333332,-29.33984375,93653.13541666667,4663.799999999999,7237.375,745.35,-411.0,419.0,767.5,-21.0,-6.5,-7.5,2.25,1.09375,-0.46875,20.8125,-23.09375,-29.46875,93654.125,68.2471820268788,12.796686011321114,39.958981628239194,111.57816170834133,102.79834413422032,180.16053592747153,94.57932240691066,76.76746861521912,145.07369122802666,34.52932917622248,29.83290814700887,18.910538352233036,1.7665554097866931,4.0202020511168435,4.412338882787206,11.372203693390812,4600.0,7250.0,700.0,-404.0,335.0,789.0,-97.0,21.0,163.0,-54.5,-11.75,-3.0,20.25,-24.9375,-28.5625,93635.25,4817.25,7255.05,813.45,-200.0,657.0,1123.0,298.0,187.0,351.0,76.1875,64.375,54.375,27.9375,-17.5625,-22.125,93670.25,4605.0,7208.85,695.05,-823.0,173.0,439.0,-307.0,-291.0,-244.0,-54.5,-77.9375,-42.25,16.6875,-33.75,-37.5625,93635.25,LivingRoom ,EATING,0,0,0
4656.200000000001,7206.270212765958,723.0042553191489,-489.0425531914894,429.3829787234043,713.1276595744681,-24.29787234042553,-10.680851063829786,-15.191489361702128,4.110372340425532,-1.7154255319148937,-4.526595744680851,21.674202127659573,-28.404255319148938,-31.28191489361702,93658.57978723405,4656.7,7221.2,712.9,-490.0,408.0,714.0,-25.0,-14.0,-17.0,6.6875,-11.0,-2.125,20.8125,-27.1875,-31.125,93654.5,35.04835634674891,41.06891829539403,28.56240655923682,152.1249425632143,92.96435810508693,172.9856260705265,100.2143170569991,61.24970501543118,132.58100695143068,31.305871827243262,47.71947082132366,17.814143443830602,4.454650266440646,6.799122424088481,4.4802342236897825,17.03904614208223,4700.0,7250.0,700.0,-519.0,507.0,515.0,-124.0,21.0,-205.0,8.4375,-11.75,-3.0,20.5625,-42.5,-37.875,93643.25,4710.95,7251.55,784.9,-200.0,635.0,1123.0,298.0,112.0,351.0,60.0625,133.9375,35.0625,41.9375,-18.5,-22.6875,93693.75,4605.0,7129.9,679.6,-823.0,259.0,439.0,-307.0,-162.0,-239.0,-54.5,-107.25,-59.875,16.1875,-44.125,-41.125,93634.5,LivingRoom ,EATING,0,0,0
4667.849999999999,7198.851086956521,723.379347826087,-531.9130434782609,417.19565217391306,710.0217391304348,-28.97826086956522,-10.76086956521739,-9.826086956521738,2.157608695652174,-1.7119565217391304,-5.392663043478261,34.61548913043478,-30.641304347826086,-30.966032608695652,93666.33152173914,4689.0,7208.775,712.45,-552.0,406.5,683.5,-28.5,-14.5,-8.5,6.75,-15.625,-2.125,22.6875,-29.8125,-31.15625,93653.75,39.3997053006463,43.968235363890805,34.377024911813415,164.55108306297487,132.4015138492201,231.62647029027238,130.67406256797605,96.21507961797735,207.8312674955149,41.18224599588639,53.47065244888245,20.12676693004019,19.205033914890688,5.360371482232948,5.025122761797493,25.319187626724805,4700.0,7250.0,700.0,-567.0,273.0,515.0,-124.0,21.0,-64.0,8.4375,-107.25,-1.8125,18.1875,-29.6875,-37.875,93634.5,4735.9,7251.55,812.05,-182.0,726.0,1278.0,298.0,277.0,491.0,85.0,133.9375,35.0625,71.3125,-22.0,-20.6875,93707.0,4605.0,7129.9,679.6,-890.0,-1.0,296.0,-358.0,-327.0,-490.0,-94.375,-107.25,-59.875,16.1875,-44.125,-41.125,93634.5,LivingRoom ,EATING,0,0,1
4728.438043478261,7190.989130434783,748.2217391304349,-604.1304347826087,355.04347826086956,669.3478260869565,-47.30434782608695,-17.391304347826086,-13.043478260869565,-0.5448369565217391,13.456521739130435,-6.889945652173913,56.49184782608695,-35.44972826086956,-27.83016304347826,93662.99456521739,4699.4,7194.575,761.7750000000001,-576.5,381.0,601.5,-46.0,-22.0,-47.0,5.3125,-5.625,-1.875,63.59375,-32.6875,-27.21875,93660.625,49.4349327509096,38.63280113674778,48.546776586177295,222.44635894681585,150.7650057424525,242.80986776500242,160.5793496568967,103.82602505278179,227.93838899743054,42.30346235961916,67.27334098965672,22.545009705827795,26.667417335448796,10.666419427190133,5.774940822259902,29.374473476625674,4700.0,7200.0,700.0,-567.0,408.0,382.0,-124.0,-32.0,-138.0,-94.375,-107.25,-1.8125,18.1875,-29.6875,-27.0,93631.0,4812.6,7248.7,813.35,-182.0,726.0,1278.0,222.0,277.0,522.0,85.0,144.0625,35.0625,91.3125,-22.4375,-18.75,93707.0,4656.7,7129.9,679.6,-1085.0,-1.0,296.0,-527.0,-327.0,-490.0,-94.375,-107.25,-59.875,16.1875,-71.0625,-41.125,93631.0,LivingRoom ,EATING,0,0,3
4749.135106382978,7238.36914893617,750.6829787234042,-715.5744680851063,267.70212765957444,518.4468085106383,-35.1063829787234,-6.617021276595745,-7.127659574468085,-3.1343085106382977,18.34840425531915,-3.8138297872340425,80.91489361702128,-48.86303191489362,-29.99867021276596,93663.21276595745,4745.0,7235.55,740.75,-750.0,205.0,516.0,-17.0,7.0,-9.0,4.0,16.125,0.6875,87.125,-34.8125,-27.0,93655.5,41.591204017422626,50.41493217506562,43.99005109433434,278.22822542097805,159.86474104741566,344.65841997111323,166.91878187004772,102.714156594149,227.10652710368979,38.832153400124426,63.639279042680506,19.400953380674192,16.39508510126029,21.786718748846752,11.104291067986813,26.876932626335076,4750.0,7250.0,800.0,-567.0,176.0,382.0,-71.0,37.0,-32.0,24.25,3.1875,-1.8125,69.5,-75.5625,-27.0,93645.0,4812.6,7344.4,813.35,-182.0,726.0,1278.0,222.0,277.0,522.0,85.0,144.0625,27.75,101.4375,-22.4375,-18.75,93707.0,4689.2,7147.2,686.25,-1190.0,-1.0,-150.0,-527.0,-327.0,-490.0,-94.375,-202.0625,-57.8125,47.75,-80.25,-65.3125,93631.0,LivingRoom ,EATING,1,0,5
4759.401041666667,7286.005208333333,732.9489583333334,-853.1458333333334,218.875,332.875,-27.666666666666668,-1.875,-13.0625,-1.6328125,19.872395833333332,-2.0455729166666665,95.71354166666667,-62.403645833333336,-36.703125,93652.484375,4750.0,7285.3,727.875,-939.0,186.0,307.5,-19.5,18.5,-12.0,0.96875,19.375,1.46875,96.84375,-69.5625,-28.1875,93645.0,30.591861123131334,57.83174259020305,49.18264861131168,221.78636352602766,107.50984615967319,243.78693391758338,145.0737645583121,68.34008356211307,142.26965799180928,23.490688318272486,66.04132500764588,21.972634468566824,10.257958065769133,17.23007521005749,17.96260475398466,21.334432154283945,4750.0,7350.0,700.0,-868.0,176.0,-150.0,-46.0,37.0,-47.0,-5.625,3.1875,-29.125,92.1875,-75.5625,-27.0,93645.0,4812.6,7367.2,813.35,-247.0,475.0,1158.0,192.0,87.0,522.0,50.5,144.0625,48.8125,112.0625,-28.25,-18.75,93684.75,4712.15,7183.45,671.15,-1190.0,26.0,-150.0,-527.0,-237.0,-305.0,-61.625,-202.0625,-57.8125,74.0,-80.25,-81.125,93625.75,LivingRoom ,EATING,1,0,1
4737.567708333333,7319.895833333333,715.7739583333333,-897.3541666666666,302.6041666666667,106.52083333333333,-11.770833333333334,2.1458333333333335,-5.895833333333333,-3.3424479166666665,12.666666666666666,9.739583333333334,90.26822916666667,-66.94921875,-61.453125,93658.06770833333,4737.825,7331.475,719.2,-894.5,219.0,108.0,-15.5,5.0,-8.0,-2.28125,20.15625,9.46875,97.15625,-69.34375,-56.78125,93663.125,21.308807213199323,37.278562993565686,30.38150331324464,112.34397967627615,181.69330478459048,194.1944616059884,82.40384198421131,41.36654501042226,67.86351747106909,16.110628747533305,50.98852168843132,21.58987559668054,18.73599635897132,9.919930911900295,30.33082359098491,19.469270630710437,4750.0,7350.0,700.0,-868.0,176.0,-229.0,-46.0,-42.0,-47.0,-20.4375,16.125,-29.125,55.6875,-75.5625,-106.6875,93672.75,4797.55,7367.2,773.2,-713.0,623.0,508.0,192.0,87.0,141.0,24.8125,106.3125,48.8125,112.0625,-49.0,-18.75,93684.75,4687.4,7246.8,671.15,-1190.0,26.0,-229.0,-324.0,-97.0,-305.0,-31.625,-202.0625,-29.125,54.3125,-80.25,-106.6875,93625.75,LivingRoom ,EATING,0,0,0
4714.375,7288.026041666667,704.4187500000002,-877.4791666666666,383.3541666666667,33.791666666666664,-13.145833333333334,-2.8958333333333335,-4.4375,0.10416666666666667,0.9778645833333334,2.8606770833333335,86.32161458333333,-62.115885416666664,-74.9140625,93655.390625,4719.75,7322.4,697.675,-875.0,344.0,32.5,-19.5,-3.5,-8.0,-1.09375,17.125,3.4375,97.78125,-65.0,-81.34375,93660.25,28.72116685533366,73.55374716692616,44.37968629734851,115.65336866860889,173.74394091175122,204.63199541151744,78.15233068040992,63.9089244203607,52.57412447040642,18.94983199227531,54.678751564054686,28.14103927871285,23.736502287019828,12.915005688683182,30.14204135557373,17.02031844668588,4700.0,7350.0,700.0,-998.0,190.0,-121.0,-46.0,-14.0,-47.0,-20.4375,-179.3125,-61.5625,55.6875,-68.6875,-115.125,93672.75,4752.05,7367.2,773.2,-681.0,623.0,508.0,189.0,130.0,108.0,46.5,106.3125,48.8125,112.0625,0.0,0.0,93672.75,4650.9,7143.2,614.4,-1131.0,47.0,-371.0,-251.0,-279.0,-136.0,-31.625,-179.3125,-61.5625,0.0,-76.25,-115.125,93625.75,LivingRoom ,EATING,0,0,0
4718.375,7236.973958333333,687.3781249999998,-865.3541666666666,425.7291666666667,3.8958333333333335,-11.958333333333334,-2.3958333333333335,-10.583333333333334,2.7604166666666665,-7.990885416666667,-1.3216145833333333,85.94791666666667,-60.25,-82.2890625,93656.61979166667,4726.075,7234.575000000001,698.725,-862.5,408.5,-54.5,-13.0,-1.5,-15.5,2.875,12.78125,-5.34375,99.4375,-62.9375,-91.375,93657.25,31.77135067012822,72.43857632033763,60.532930115140374,111.6339934469237,140.60639790281832,201.4628670271029,74.34821989407978,63.47582538101745,55.71387135169219,20.413276332342328,57.999138769489925,27.03771249948258,23.4655960438902,11.947594456536946,26.480094720178545,11.809884696787622,4750.0,7150.0,750.0,-998.0,600.0,-121.0,-37.0,-14.0,-49.0,-31.625,-179.3125,-61.5625,55.6875,-66.5625,-115.125,93660.5,4765.45,7362.3,773.2,-681.0,623.0,517.0,189.0,130.0,108.0,46.5,57.6875,47.375,116.0,0.0,0.0,93672.75,4650.9,7141.85,593.55,-1133.0,47.0,-371.0,-251.0,-279.0,-136.0,-31.625,-179.3125,-61.5625,0.0,-72.9375,-115.125,93635.75,LivingRoom ,EATING,0,0,1
4707.329591836735,7240.888775510205,693.8336734693879,-818.1428571428571,288.42857142857144,242.3469387755102,-14.183673469387756,2.510204081632653,-21.183673469387756,2.5880102040816326,-30.910714285714285,-12.151785714285714,103.1109693877551,-55.83290816326531,-53.37244897959184,93659.44897959183,4699.55,7237.1,706.5,-856.0,303.0,214.0,-30.0,8.0,-16.0,9.5625,-10.1875,-11.9375,103.1875,-63.375,-56.8125,93660.5,34.32603469909194,73.16526616823991,65.47039756300417,250.59163327347278,184.56728673666234,382.5565617777111,177.27446627915091,99.44473390803967,141.0616994836816,31.915068561680524,65.6882482910122,32.87537874068906,27.70218133059203,17.977590161281775,38.236598021431654,9.348710304300884,4700.0,7150.0,750.0,-998.0,-138.0,337.0,2.0,16.0,-49.0,-114.25,-179.3125,-100.5625,0.0,-66.5625,0.0,93660.5,4765.45,7360.5,787.1,449.0,611.0,1361.0,968.0,295.0,543.0,62.25,72.5,69.125,137.875,0.0,4.5625,93674.5,4650.9,7141.85,593.55,-1133.0,-138.0,-371.0,-251.0,-279.0,-456.0,-114.25,-179.3125,-100.5625,0.0,-72.9375,-115.125,93635.75,LivingRoom ,EATING,1,0,4
4723.616326530612,7276.033673469388,719.4877551020408,-727.6938775510204,168.9591836734694,441.1224489795918,1.9183673469387754,2.5918367346938775,-37.95918367346939,-4.073979591836735,-17.290816326530614,-2.1581632653061225,118.86224489795919,-50.375,-30.95280612244898,93659.62755102041,4729.9,7305.45,750.45,-834.0,182.0,337.0,-12.0,8.0,-25.0,3.625,-14.125,-3.8125,123.1875,-56.3125,-21.3125,93660.5,30.85666693856973,66.23408880295577,66.49768129620844,320.7443948640953,199.58341605951733,411.2002570044725,205.4300201949046,104.2268995923771,171.26514035062633,33.864040243203775,128.2307214680865,40.16922030731726,21.879043449183868,19.431135077927554,34.53142093333505,8.021475480081644,4750.0,7300.0,750.0,-834.0,-280.0,337.0,38.0,32.0,-49.0,-114.25,-333.75,-100.5625,131.0,-66.5625,5.9375,93650.0,4765.45,7360.5,794.45,449.0,456.0,1361.0,968.0,295.0,543.0,62.25,506.625,112.375,140.0,0.0,7.5625,93674.5,4661.6,7141.85,593.55,-1279.0,-280.0,-189.0,-449.0,-220.0,-457.0,-114.25,-333.75,-100.5625,0.0,-79.375,-101.6875,93647.25,LivingRoom ,EATING,2,0,8
4710.196875000001,7318.212499999999,769.7604166666666,-624.8333333333334,148.91666666666666,630.4583333333334,3.8125,-0.0625,-34.3125,-2.484375,-9.739583333333334,-0.3671875,130.04817708333334,-40.859375,-15.346354166666666,93664.3125,4709.174999999999,7319.55,773.2,-649.5,166.0,733.5,-27.5,0.5,-12.0,4.375,-14.40625,-0.03125,131.21875,-37.21875,-16.53125,93664.0,27.558796731001117,18.729381571278726,22.104423256042423,332.44044952783577,190.48368817563596,341.47713909546377,235.70001275061125,123.11167845635289,176.37208688427683,35.5021549859106,129.34648052225043,45.44308426021628,21.141479155635892,17.367270686277266,15.834006159299934,10.019595163181123,4700.0,7300.0,750.0,-766.0,255.0,765.0,-67.0,33.0,-457.0,-114.25,-333.75,-100.5625,131.0,-32.125,5.9375,93650.0,4764.6,7360.5,815.4,449.0,492.0,1361.0,968.0,295.0,543.0,62.25,506.625,112.375,149.8125,0.0,7.5625,93684.5,4661.6,7272.45,726.85,-1279.0,-280.0,-189.0,-470.0,-251.0,-457.0,-114.25,-333.75,-100.5625,0.0,-79.375,-66.1875,93650.0,LivingRoom ,EATING,3,0,3
4701.689361702127,7304.2159574468105,791.7,-604.063829787234,183.74468085106383,668.063829787234,1.7659574468085106,-1.0851063829787233,-22.851063829787233,0.7180851063829787,1.8045212765957446,2.985372340425532,135.41888297872342,-39.211436170212764,-16.96941489361702,93659.80319148937,4705.45,7307.6,791.9,-636.0,235.0,725.0,-21.0,1.0,-4.0,-1.5625,-1.5625,0.1875,134.375,-37.8125,-18.0625,93656.0,31.823490667734223,18.725311590787115,28.353414026471693,269.84338487153417,168.01287063600947,280.57420968709084,173.23936855089028,95.51595127135072,119.90321798695092,22.697674357816243,124.45628803707321,35.57692745465498,8.483048503013913,14.109586345204939,14.493456124687848,14.352883380425688,4700.0,7300.0,800.0,-500.0,235.0,685.0,-67.0,-3.0,-5.0,-56.0,-333.75,-8.0625,131.0,-32.125,5.9375,93650.0,4764.6,7332.8,832.7,34.0,492.0,1078.0,456.0,230.0,301.0,55.8125,506.625,112.375,149.8125,-18.8125,7.5625,93684.5,4658.75,7272.45,727.05,-1279.0,-280.0,-189.0,-470.0,-251.0,-457.0,-56.0,-333.75,-78.1875,120.0625,-79.375,-66.1875,93638.5,LivingRoom ,EATING,3,0,1
4707.260638297872,7289.825531914892,813.7617021276596,-589.7021276595744,234.14893617021278,741.7234042553191,-14.659574468085106,-0.44680851063829785,-3.3191489361702127,2.956117021276596,1.1954787234042554,-0.47606382978723405,123.01994680851064,-35.900265957446805,-17.53723404255319,93659.6170212766,4703.0,7281.05,817.45,-621.0,223.0,772.0,-23.0,-2.0,1.0,-0.8125,10.5,0.25,128.8125,-34.3125,-17.0,93657.25,38.617854532769556,26.116505010242975,22.416902621163672,171.09530968257033,77.49810060040019,101.53489486435505,123.55552819538701,71.0767523023797,51.71750455620238,14.021939784794386,46.66801150389631,24.289354668297772,22.416856899012508,5.8465816432702455,5.127744154883933,16.344778040560527,4700.0,7300.0,800.0,-483.0,164.0,685.0,-67.0,-15.0,5.0,-2.75,10.5,-8.0625,73.375,-37.875,-11.875,93638.5,4788.85,7332.8,850.8,34.0,492.0,875.0,456.0,230.0,132.0,43.625,111.6875,63.1875,149.8125,-25.4375,-9.5,93684.5,4658.75,7240.95,770.9,-1106.0,77.0,523.0,-470.0,-251.0,-166.0,-28.8125,-108.5625,-78.1875,73.375,-47.75,-26.875,93633.0,LivingRoom ,EATING,2,0,0
4731.518085106382,7274.032978723403,828.4648936170211,-625.0851063829788,213.25531914893617,726.531914893617,-17.914893617021278,-0.0851063829787234,-0.574468085106383,-1.1515957446808511,0.8976063829787234,0.6622340425531915,97.96941489361703,-38.51196808510638,-16.57712765957447,93655.1914893617,4745.45,7273.15,827.9,-668.0,218.0,706.0,-19.0,-2.0,4.0,-0.8125,2.625,-0.25,97.25,-41.3125,-17.625,93653.0,50.761179348614,14.188284652103018,11.648296735414267,96.93247981416351,34.665148570854385,89.54810489190561,30.706768682543252,11.780288966770321,24.963229202387176,4.213351914422068,27.26734722053024,5.818627841244263,31.671475324692402,6.150466112951766,3.6920617685669845,16.402976662354735,4800.0,7250.0,850.0,-692.0,164.0,663.0,-6.0,-2.0,5.0,-0.8125,-0.375,-1.3125,51.75,-43.5625,-18.1875,93633.0,4788.85,7318.25,850.8,-381.0,296.0,871.0,92.0,36.0,44.0,7.875,52.375,19.6875,147.6875,-26.4375,-11.625,93684.25,4658.75,7240.95,805.45,-795.0,161.0,523.0,-78.0,-25.0,-76.0,-10.75,-79.125,-8.5625,51.75,-47.75,-24.4375,93633.0,LivingRoom ,EATING,0,0,0
4775.230851063829,7268.11595744681,837.3851063829787,-647.6170212765958,211.63829787234042,712.468085106383,-12.74468085106383,-0.574468085106383,-0.0851063829787234,0.20212765957446807,6.605053191489362,1.9069148936170213,67.46143617021276,-40.337765957446805,-16.756648936170212,93656.72340425532,4781.95,7268.7,839.75,-675.0,220.0,684.0,-13.0,-1.0,-1.0,0.4375,3.375,0.8125,60.1875,-42.9375,-18.125,93654.25,26.491057870270723,10.693934213126271,13.498880448318742,62.55243129167353,26.09466506521716,63.85542470021458,19.784126361156073,9.333773832167044,15.330886396612163,2.409828041556179,12.574952637232114,4.502789600708834,24.405887457612828,4.7289769964722534,2.729426315170368,13.147804623585701,4800.0,7250.0,850.0,-692.0,164.0,664.0,-6.0,-1.0,-1.0,1.625,-3.6875,-0.1875,38.0625,-42.9375,-18.125,93633.0,4811.75,7288.45,860.45,-483.0,247.0,848.0,58.0,36.0,44.0,7.875,52.375,19.6875,119.75,-30.0,-11.625,93684.25,4700.8,7240.95,805.45,-724.0,161.0,619.0,-74.0,-25.0,-33.0,-5.9375,-13.75,-3.3125,38.0625,-46.25,-20.4375,93633.0,LivingRoom ,EATING,0,0,0
4776.793617021276,7271.027659574468,845.4287234042554,-669.1702127659574,224.40425531914894,685.6595744680851,-9.23404255319149,-0.44680851063829785,-1.425531914893617,0.6436170212765957,-3.4388297872340425,-0.7965425531914894,46.71941489361702,-42.276595744680854,-18.18218085106383,93656.39893617021,4780.15,7270.15,848.65,-684.0,226.0,677.0,-9.0,-1.0,-2.0,0.6875,0.3125,-0.375,43.5625,-43.25,-18.1875,93663.5,23.08110609073752,8.29597734179073,10.368256030668029,50.359282702413196,10.395775844623426,47.432916746910415,15.856986892297591,6.807312278905287,18.79956599967492,2.2511287512016245,17.575683051936753,3.0084366224325447,11.494939756408861,3.1928435783222566,1.2508712851515342,13.853431098160824,4800.0,7250.0,850.0,-692.0,218.0,663.0,-20.0,-1.0,-17.0,1.625,-3.6875,0.375,36.75,-42.9375,-18.125,93663.5,4811.75,7288.45,860.45,-507.0,247.0,805.0,36.0,14.0,52.0,6.875,15.1875,4.625,71.6875,-33.8125,-15.9375,93675.25,4722.0,7253.15,818.8,-732.0,194.0,616.0,-42.0,-22.0,-58.0,-3.875,-80.625,-12.375,33.875,-46.4375,-20.4375,93633.0,LivingRoom ,EATING,0,0,0
4753.766666666666,7253.740624999999,860.3697916666666,-628.1041666666666,217.16666666666666,719.875,-11.4375,-8.145833333333334,-1.8333333333333333,1.0143229166666667,-2.8880208333333335,-0.22916666666666666,37.234375,-39.102864583333336,-17.430989583333332,93658.42708333333,4753.025,7263.525,853.55,-655.5,221.5,706.5,-7.5,-1.0,-2.5,0.28125,-0.0625,0.15625,36.03125,-39.125,-17.90625,93661.25,37.71265566309437,26.77641598109339,15.230169316277555,73.63343354388,22.82806534456844,70.822710926501,35.36370675309856,26.056395125771996,34.35133453589778,9.496449500851863,20.27002702843781,5.192205526262454,5.726427456064948,5.082505611910522,2.001297766422874,11.558357749492279,4800.0,7250.0,850.0,-727.0,205.0,634.0,-40.0,0.0,-30.0,-3.875,3.4375,0.375,32.9375,-42.9375,-20.4375,93663.5,4811.75,7288.45,887.85,-474.0,267.0,872.0,74.0,14.0,105.0,31.4375,61.875,21.25,51.0,-31.625,-13.75,93675.25,4701.95,7197.2,839.55,-732.0,150.0,616.0,-166.0,-128.0,-141.0,-38.5625,-80.625,-12.375,28.875,-46.4375,-20.4375,93633.25,LivingRoom ,EATING,0,0,0
4739.253125,7250.029166666667,845.240625,-610.7083333333334,235.54166666666666,712.2708333333334,-12.333333333333334,-10.75,-1.8333333333333333,-6.192708333333333,-2.3111979166666665,6.108072916666667,25.790364583333332,-38.85546875,-19.861979166666668,93658.3125,4735.85,7259.3,853.95,-583.5,218.0,753.5,-11.0,-2.0,-10.0,-1.0,-2.15625,0.28125,32.0625,-34.875,-17.09375,93659.0,26.753531097722608,25.817359394393755,42.845415674047494,148.99549590983762,67.78814254354184,164.57045824494247,76.64961265764737,55.4983227655326,93.14466746955611,24.541093391478928,72.43541750442101,16.900555607758964,12.715179098955161,8.84886356233089,6.836253950375514,11.353776670379379,4750.0,7250.0,850.0,-727.0,183.0,203.0,-40.0,-2.0,-10.0,-3.875,3.4375,-12.375,32.9375,-34.875,-20.375,93663.5,4803.55,7285.2,887.85,-330.0,478.0,1126.0,166.0,144.0,336.0,32.3125,201.9375,75.0625,37.6875,-30.0,-13.75,93675.25,4701.95,7197.2,744.5,-1046.0,150.0,203.0,-219.0,-131.0,-243.0,-65.25,-261.9375,-12.375,1.25,-66.125,-47.4375,93633.25,LivingRoom ,EATING,0,0,1
4766.313541666667,7232.587500000001,801.890625,-565.2291666666666,268.9375,734.4791666666666,-19.104166666666668,-13.5,-8.520833333333334,-5.013020833333333,-1.6861979166666667,5.18359375,24.455729166666668,-34.940104166666664,-21.58203125,93658.74479166667,4746.6,7229.375,791.25,-553.5,236.0,757.5,-16.5,-4.0,-11.5,-3.0,-6.75,0.90625,28.375,-32.53125,-20.40625,93659.0,54.63168624991237,24.748605161641148,70.7306846472229,161.128234854652,104.62890985093816,194.76761817266362,86.77121779477716,74.04713852272926,131.02508929522884,32.275637071840634,74.53369834573469,22.285809719834806,14.300384275062344,9.889986257847267,6.741969171750376,8.083752022680088,4700.0,7250.0,750.0,-578.0,183.0,203.0,-44.0,-38.0,-30.0,-65.4375,3.4375,-48.625,31.5625,-34.875,-13.75,93654.0,4862.55,7272.55,887.85,-318.0,514.0,1126.0,166.0,144.0,336.0,56.1875,201.9375,75.0625,50.375,-21.625,-13.75,93675.25,4701.95,7194.2,703.2,-1046.0,21.0,203.0,-219.0,-237.0,-285.0,-65.4375,-261.9375,-48.625,1.25,-66.125,-47.4375,93643.75,LivingRoom ,EATING,0,0,1
4809.590625,7227.176041666667,771.4552083333334,-544.9375,313.875,719.9166666666666,-16.229166666666668,-9.9375,-11.083333333333334,-5.38671875,-0.0625,2.9088541666666665,37.798177083333336,-33.858072916666664,-24.565104166666668,93658.04166666667,4833.15,7220.825,770.55,-515.0,302.5,687.0,-10.5,5.5,-43.0,-6.5625,-13.28125,0.21875,29.71875,-30.96875,-23.59375,93660.375,44.75640885553285,27.521838503932234,46.22488419784965,187.66883533319842,111.0170822585042,208.77849743905094,99.78428639849432,80.06072329734235,167.8409623795165,35.356003508373355,84.90767631575149,25.57671553156377,28.551896803906967,10.919295180760068,5.512678181573753,9.793795980941816,4850.0,7200.0,750.0,-1046.0,374.0,927.0,-44.0,-106.0,-58.0,-65.4375,-261.9375,21.0625,1.25,-31.875,-26.4375,93643.75,4862.55,7272.55,886.8,-318.0,514.0,1126.0,166.0,144.0,609.0,56.1875,201.9375,75.0625,86.5,-21.625,-15.1875,93669.75,4721.7,7190.5,703.2,-1046.0,21.0,203.0,-286.0,-237.0,-285.0,-65.4375,-261.9375,-48.625,1.25,-66.125,-47.4375,93637.25,LivingRoom ,EATING,1,0,1
4842.242708333332,7205.231250000001,759.6364583333334,-535.9791666666666,330.5,726.75,-18.4375,-12.875,-19.770833333333332,2.9947916666666665,6.361979166666667,-2.078125,66.26822916666667,-32.059895833333336,-24.873697916666668,93654.47916666667,4845.225,7199.425,758.2,-521.5,336.5,711.0,-3.0,0.5,-36.0,4.71875,9.3125,-3.25,74.40625,-31.65625,-24.84375,93659.0,14.770283527664237,17.68115544806738,31.35819947675183,142.47649893307653,101.54676105544215,168.71838553347195,99.7581983513028,67.72931889734218,155.2217685412649,32.15459052314292,59.36785085505869,24.337124487590316,28.58970682184641,6.50301636146097,3.651874190551009,11.587299693388326,4850.0,7200.0,750.0,-516.0,335.0,927.0,41.0,14.0,-58.0,-65.4375,-130.5,21.0625,9.125,-33.9375,-28.75,93637.25,4862.55,7249.7,810.6,-318.0,514.0,1055.0,160.0,132.0,609.0,56.1875,147.1875,49.1875,101.4375,-21.625,-19.5625,93669.75,4802.9,7178.65,703.2,-960.0,21.0,391.0,-355.0,-237.0,-285.0,-65.4375,-130.5,-48.625,9.125,-47.125,-35.25,93634.75,LivingRoom ,EATING,0,0,0
4831.657291666667,7209.28125,756.4895833333334,-611.1458333333334,301.7083333333333,674.6875,-16.854166666666668,-15.520833333333334,-14.5625,-2.5924479166666665,6.985677083333333,-3.8828125,92.96614583333333,-38.16015625,-24.747395833333332,93653.74479166667,4841.6,7204.2,758.2,-578.0,320.0,649.5,-4.0,-1.5,-33.0,1.46875,6.40625,-2.78125,95.40625,-38.65625,-24.6875,93653.0,26.44453647788411,18.89484232507275,35.297813443119225,170.75090599221755,111.77179607201059,173.53203839943743,111.83384133336334,68.70937548938896,157.23311142945442,36.0452051378277,62.93462476738533,24.34858301517923,18.1099486218118,8.499461284653387,4.472636929814414,13.135493736451426,4850.0,7200.0,800.0,-578.0,335.0,925.0,41.0,-3.0,-33.0,-84.9375,-61.875,-1.25,110.9375,-41.0,-28.75,93634.75,4860.5,7250.15,810.6,-328.0,459.0,978.0,193.0,138.0,609.0,70.25,147.1875,49.1875,115.8125,-23.0,-14.25,93669.75,4770.5,7178.65,695.95,-984.0,11.0,284.0,-355.0,-193.0,-276.0,-84.9375,-130.5,-60.125,49.9375,-54.125,-35.25,93634.75,LivingRoom ,EATING,0,0,0
