MEAN_POS_X,MEAN_POS_Y,MEAN_POS_Z,MEAN_ACC_X,MEAN_ACC_Y,MEAN_ACC_Z,MEAN_LINACC_X,MEAN_LINACC_Y,MEAN_LINACC_Z,MEAN_GYRO_X,MEAN_GYRO_Y,MEAN_GYRO_Z,MEAN_Heading,MEAN_Roll,MEAN_Pitch,MEAN_Pressure,MEDIAN_POS_X,MEDIAN_POS_Y,MEDIAN_POS_Z,MEDIAN_ACC_X,MEDIAN_ACC_Y,MEDIAN_ACC_Z,MEDIAN_LINACC_X,MEDIAN_LINACC_Y,MEDIAN_LINACC_Z,MEDIAN_GYRO_X,MEDIAN_GYRO_Y,MEDIAN_GYRO_Z,MEDIAN_Heading,MEDIAN_Roll,MEDIAN_Pitch,MEDIAN_Pressure,STD_POS_X,STD_POS_Y,STD_POS_Z,STD_ACC_X,STD_ACC_Y,STD_ACC_Z,STD_LINACC_X,STD_LINACC_Y,STD_LINACC_Z,STD_GYRO_X,STD_GYRO_Y,STD_GYRO_Z,STD_Heading,STD_Roll,STD_Pitch,STD_Pressure,MODE_POS_X,MODE_POS_Y,MODE_POS_Z,MODE_ACC_X,MODE_ACC_Y,MODE_ACC_Z,MODE_LINACC_X,MODE_LINACC_Y,MODE_LINACC_Z,MODE_GYRO_X,MODE_GYRO_Y,MODE_GYRO_Z,MODE_Heading,MODE_Roll,MODE_Pitch,MODE_Pressure,MAX_POS_X,MAX_POS_Y,MAX_POS_Z,MAX_ACC_X,MAX_ACC_Y,MAX_ACC_Z,MAX_LINACC_X,MAX_LINACC_Y,MAX_LINACC_Z,MAX_GYRO_X,MAX_GYRO_Y,MAX_GYRO_Z,MAX_Heading,MAX_Roll,MAX_Pitch,MAX_Pressure,MIN_POS_X,MIN_POS_Y,MIN_POS_Z,MIN_ACC_X,MIN_ACC_Y,MIN_ACC_Z,MIN_LINACC_X,MIN_LINACC_Y,MIN_LINACC_Z,MIN_GYRO_X,MIN_GYRO_Y,MIN_GYRO_Z,MIN_Heading,MIN_Roll,MIN_Pitch,MIN_Pressure,LOCATION,ACTIVITY,Peaks_Acc_X,Peaks_Acc_Y,Peaks_Acc_Z
4764.42421875,7232.97109375,706.0914062500001,-796.09375,280.015625,277.84375,-9.375,-20.125,-2.296875,-2.103515625,-5.453125,4.0029296875,207.31640625,-55.74609375,-53.1884765625,93653.58984375,4762.424999999999,7229.025,709.95,-817.0,275.5,332.5,1.0,-28.5,-3.5,-0.46875,20.21875,1.65625,319.0,-58.40625,-36.875,93650.0,46.842988322005176,25.16917805931592,26.518380200669533,198.55315699024695,161.81701327033002,398.40655707734305,115.73718174422271,90.68180895962804,116.28258951794976,23.417665466407563,74.82842312080372,23.54081970054461,155.68972918973688,13.77848724241831,39.50364549587452,9.591287298308318,4800.0,7250.0,700.0,-884.0,61.0,-143.0,82.0,-41.0,-174.0,-63.4375,-86.6875,19.9375,32.4375,-64.25,-14.0,93650.0,4837.8,7287.5,781.9,-309.0,527.0,1261.0,267.0,169.0,309.0,38.6875,102.875,52.9375,356.5625,-27.3125,-13.1875,93674.75,4697.05,7186.15,648.65,-1199.0,-119.0,-496.0,-364.0,-315.0,-297.0,-63.4375,-228.9375,-36.9375,4.5,-76.25,-129.0,93642.0,LivingRoom ,EATING,0,0,3
4778.58828125,7230.72265625,734.5109375,-715.109375,293.015625,368.296875,-18.359375,-27.375,-11.796875,0.4013671875,-9.7919921875,2.4443359375,127.62109375,-48.375,-51.806640625,93654.88671875,4792.975,7229.1,715.0,-743.5,315.0,409.5,-7.0,-14.0,-4.0,2.5625,18.28125,1.1875,32.375,-50.84375,-34.4375,93650.0,58.40827889118762,27.302414175608526,57.903653878148965,208.11307344634963,177.45131164900525,461.3624639745658,99.84454062023956,120.25205010957424,151.14727178436647,29.042153025679784,68.53630574516241,23.251581693263994,143.3819974122262,15.615195336492764,40.27307999231263,10.219605505182068,4700.0,7250.0,700.0,-884.0,61.0,-143.0,-131.0,-79.0,-22.0,-65.875,-86.6875,-34.0,29.6875,-30.625,-19.3125,93650.0,4875.0,7287.5,842.3,-309.0,527.0,1278.0,205.0,176.0,447.0,60.375,91.375,52.9375,356.5625,-27.3125,-12.4375,93677.25,4697.05,7186.15,648.65,-1188.0,-209.0,-496.0,-364.0,-393.0,-360.0,-65.875,-228.9375,-36.9375,4.5,-75.875,-129.0,93643.75,LivingRoom ,EATING,0,1,7
4778.000769230769,7211.266153846154,754.3707692307693,-668.7384615384616,250.56923076923076,557.2,-18.553846153846155,-23.0,-24.661538461538463,3.1028846153846152,-15.34326923076923,-2.8173076923076925,54.99807692307692,-43.80576923076923,-31.73173076923077,93656.4076923077,4790.75,7207.05,753.2,-678.0,275.0,551.0,-6.0,-13.0,-43.0,5.125,-0.625,0.4375,32.4375,-41.25,-21.4375,93653.0,59.79834896100006,35.000878457382484,57.27817053390879,204.76703812832318,161.62291851238655,379.7076260098025,123.46824373715883,124.09497370965514,173.2886209589255,32.1229222310527,72.30325804154663,20.060474694831406,83.48029389562689,13.443717325645126,27.750863767254632,9.452654350966514,4700.0,7200.0,700.0,-1188.0,61.0,551.0,-131.0,-36.0,-13.0,10.5,-86.6875,-34.0,29.6875,-43.25,-22.3125,93650.0,4875.0,7287.5,842.3,-247.0,470.0,1278.0,314.0,176.0,447.0,60.375,165.1875,51.625,356.5625,-27.3125,-12.4375,93677.25,4695.0,7138.05,648.65,-1188.0,-209.0,-496.0,-364.0,-393.0,-360.0,-65.875,-228.9375,-36.9375,4.5,-70.0,-129.0,93643.75,LivingRoom ,EATING,1,0,5
4777.557692307692,7228.762307692307,765.8069230769231,-623.5538461538462,230.2153846153846,675.2,-21.26153846153846,-28.615384615384617,-36.2,-1.291346153846154,-7.184615384615385,1.4384615384615385,34.68942307692308,-39.478846153846156,-21.18653846153846,93655.03076923077,4790.75,7230.7,758.15,-615.0,256.0,602.0,-6.0,-13.0,-62.0,4.9375,-0.625,1.875,33.8125,-39.0,-19.625,93651.25,60.422840925670215,45.55010550787829,49.027634010164256,176.19928621177345,165.42393383248805,277.63922183293914,112.06963194302975,133.490717409921,222.66084074214757,40.887060823547365,62.20549993775478,17.96278600857628,3.749104209915068,9.255964853357348,6.103642734253361,9.370364238466852,4700.0,7200.0,750.0,-730.0,412.0,410.0,-131.0,41.0,-13.0,46.625,-152.625,0.1875,29.6875,-45.0,-22.3125,93653.0,4875.0,7303.4,842.3,-247.0,472.0,1286.0,314.0,176.0,568.0,61.1875,165.1875,51.625,41.1875,-27.3125,-12.4375,93677.25,4684.65,7138.05,648.65,-1096.0,-209.0,17.0,-272.0,-393.0,-495.0,-93.375,-152.625,-34.0,27.1875,-68.5,-42.5625,93643.75,LivingRoom ,EATING,0,0,5
4770.787692307693,7216.317692307693,782.1607692307692,-634.5538461538462,219.26153846153846,669.0,-25.984615384615385,-32.10769230769231,-32.95384615384615,0.5548076923076923,7.181730769230769,-2.7615384615384615,36.42211538461538,-40.323076923076925,-20.08269230769231,93652.7576923077,4750.05,7206.75,776.1,-630.0,244.0,657.0,-6.0,-17.0,-69.0,8.125,10.3125,1.25,37.5,-39.625,-19.4375,93651.25,59.46037548152427,44.58047185880657,30.947733777476156,181.9214314244984,149.1443592759919,257.3568777009855,128.12097460843555,114.09920615917467,223.41360402074548,42.39733335306268,64.9814940632185,19.25738587353152,4.00591650402996,6.894490919063777,4.606343119557655,12.5725992699937,4700.0,7200.0,750.0,-730.0,167.0,549.0,-131.0,41.0,-69.0,46.625,-152.625,1.25,29.6875,-45.0,-25.4375,93649.25,4875.0,7303.4,842.3,-161.0,472.0,1286.0,314.0,176.0,568.0,61.1875,165.1875,41.25,43.375,-29.0625,-12.125,93677.25,4684.65,7138.05,733.1,-1116.0,-209.0,17.0,-272.0,-393.0,-495.0,-93.375,-152.625,-58.375,28.8125,-56.625,-32.0625,93626.25,LivingRoom ,EATING,0,0,5
4744.360769230769,7204.195384615385,780.1361538461537,-563.9076923076923,136.3230769230769,686.7692307692307,-31.76923076923077,-26.076923076923077,-38.4,-8.471153846153847,-8.261538461538462,-1.291346153846154,38.62980769230769,-36.11057692307692,-14.385576923076924,93647.55,4745.05,7187.0,774.4,-630.0,153.0,703.0,-17.0,-23.0,-69.0,-4.8125,-3.3125,1.5,38.4375,-40.5,-19.375,93650.75,38.108838267343444,50.36241291494466,32.41538806513755,303.36584365441314,216.74553828253215,265.2877429103379,154.90095315543266,91.24542928489413,212.57328148193977,42.08947244894677,80.0955864287764,20.622153795456516,2.7042381128579733,15.700570257167106,13.642359073405904,11.127124094976203,4750.0,7150.0,750.0,-730.0,167.0,703.0,-221.0,41.0,-136.0,-94.6875,-272.5,-6.25,36.3125,-45.0,-25.4375,93649.25,4837.95,7303.4,868.7,298.0,472.0,1286.0,314.0,150.0,568.0,61.1875,165.1875,43.125,44.625,-1.1875,17.6875,93666.0,4684.65,7138.05,733.1,-1116.0,-411.0,17.0,-411.0,-252.0,-526.0,-94.6875,-272.5,-58.375,33.0625,-56.625,-32.0625,93626.25,LivingRoom ,EATING,4,1,4
4732.46328125,7201.8484375,814.9890625,-444.953125,-21.609375,739.53125,-33.03125,-26.59375,-45.390625,-10.259765625,-8.4189453125,-0.423828125,38.201171875,-29.19921875,-3.6318359375,93645.46484375,4741.425,7179.975,777.65,-506.5,41.0,767.5,-14.5,-21.5,-59.5,-7.3125,-2.78125,1.84375,37.78125,-37.15625,-11.90625,93649.25,19.710893052713644,51.28219002141832,68.48607173235567,352.037625590432,292.7722240049584,263.7408521696527,186.5077528283459,90.53066107810157,205.52624033507217,39.819594442077104,90.94028944863179,18.892594254165566,2.722956601293851,18.365207934439468,19.48500236365254,10.629666779735585,4750.0,7150.0,750.0,-730.0,330.0,557.0,-221.0,-134.0,-136.0,-94.6875,-272.5,2.25,37.5,-41.0,-25.4375,93649.25,4756.5,7303.4,943.75,368.0,472.0,1286.0,419.0,150.0,568.0,61.1875,284.5,43.125,44.625,-1.1875,25.5,93666.25,4684.65,7145.6,733.1,-1116.0,-525.0,17.0,-745.0,-252.0,-526.0,-94.6875,-272.5,-58.375,33.0625,-56.625,-32.0625,93626.25,LivingRoom ,EATING,7,2,1
4739.064062500001,7164.8578125,855.721875,-362.578125,-177.859375,794.4375,-27.21875,-29.25,-36.171875,-7.2490234375,-2.8388671875,0.5615234375,38.10546875,-23.2421875,7.8037109375,93644.828125,4742.4,7162.125,877.0,-347.0,-263.0,803.5,-19.5,-19.0,-37.0,-7.3125,-3.8125,2.25,37.59375,-20.0625,16.40625,93642.0,12.185853979199845,32.280974074559474,66.7687628198401,342.2592911390891,268.9794272647384,214.13842689488467,192.16324646937767,86.03616810517669,169.12985099625635,33.439230025315325,95.20010371635682,20.698793230376655,2.582562168883993,17.212910509104624,17.857195967337937,11.575740488501928,4750.0,7150.0,900.0,-161.0,-356.0,738.0,-221.0,-134.0,-136.0,-14.875,-272.5,2.25,37.5,-29.4375,-25.4375,93637.25,4756.5,7261.25,943.75,368.0,370.0,1247.0,419.0,131.0,438.0,50.0625,284.5,59.125,44.625,-1.1875,28.1875,93666.25,4714.85,7109.95,766.6,-1116.0,-673.0,338.0,-745.0,-244.0,-526.0,-94.6875,-272.5,-58.375,34.625,-56.625,-25.4375,93626.25,LivingRoom ,EATING,6,2,0
4731.0234375,7138.460156249999,888.7390625,-309.734375,-310.109375,813.125,-10.09375,-27.828125,-36.84375,-6.748046875,-5.76171875,3.8876953125,37.5498046875,-19.552734375,18.34765625,93652.97265625,4734.45,7148.35,907.1500000000001,-175.5,-329.0,840.0,-2.0,-4.5,-39.0,-7.3125,-6.65625,3.84375,37.5,-13.625,19.28125,93652.0,15.649793265914843,30.29237446567785,49.565881657688365,355.296756903676,162.29848234358738,230.24193624609137,211.51132047830487,90.837296495018,166.5051806954147,30.054990458855496,104.74465945763457,18.15966232546023,2.1698745622753,16.861834292216393,9.110602872336202,15.599915877081639,4750.0,7150.0,900.0,-961.0,-358.0,305.0,-221.0,-93.0,-73.0,-14.875,-272.5,-20.75,36.3125,-29.4375,22.0625,93637.25,4756.05,7191.1,944.9,368.0,154.0,1247.0,492.0,131.0,380.0,50.0625,284.5,59.125,44.625,-1.1875,33.75,93684.25,4704.7,7082.9,766.85,-1153.0,-673.0,305.0,-745.0,-296.0,-526.0,-94.6875,-272.5,-30.5,34.625,-60.9375,-11.6875,93635.25,LivingRoom ,EATING,5,0,1
4731.7,7126.22109375,902.74375,-304.328125,-285.015625,824.46875,5.75,-27.3125,-35.203125,4.6123046875,2.76953125,1.771484375,37.4638671875,-19.5361328125,17.2236328125,93660.1640625,4732.75,7117.15,910.45,-263.5,-310.5,852.0,18.5,-4.0,-35.0,3.875,-3.8125,1.71875,37.5,-15.0625,19.28125,93661.25,18.70706300703579,30.24149730258383,30.399487647102692,334.14354175715545,185.26930139043114,223.37071249027412,221.40941033327147,92.61884257536369,165.75763332634907,26.843025413580055,99.75490728359051,17.139491821653113,1.8870579441187822,14.541572028138539,10.046955759120852,15.685602712056562,4750.0,7100.0,900.0,-63.0,-358.0,874.0,24.0,-4.0,-73.0,-14.875,-216.375,-20.75,37.75,-11.125,22.0625,93637.25,4782.75,7191.1,960.95,472.0,202.0,1349.0,609.0,128.0,380.0,57.5625,284.5,59.125,43.125,-1.25,33.75,93684.25,4704.7,7082.9,844.35,-1153.0,-673.0,305.0,-745.0,-337.0,-434.0,-38.625,-216.375,-33.375,34.625,-60.9375,-5.0625,93637.25,LivingRoom ,EATING,4,0,3
4743.34375,7133.864062500001,927.0296874999999,-305.375,-217.4375,853.796875,10.75,-38.859375,-16.3125,1.3955078125,-3.5966796875,2.7685546875,38.3193359375,-18.7578125,12.578125,93660.34765625,4738.299999999999,7117.15,916.875,-239.0,-254.0,879.0,2.0,-9.0,-7.5,7.59375,-10.875,3.125,37.875,-14.1875,15.5625,93660.0,31.175028799263675,41.35653579635754,59.8894912998496,329.4847107274852,200.64434894086793,256.368545459833,211.79055242205231,106.410834152355,202.14350356057952,31.533940313610014,88.39858742727642,16.9444070863771,2.1982902014879286,14.10850499501788,11.382781221359451,14.750747706869179,4700.0,7100.0,900.0,-213.0,-358.0,874.0,-28.0,-74.0,-222.0,18.0,-63.25,-20.75,35.6875,-11.125,3.875,93684.25,4802.65,7214.45,1039.6,472.0,265.0,1515.0,735.0,160.0,776.0,57.5625,188.625,59.125,43.125,-3.4375,33.75,93684.25,4704.7,7082.9,844.35,-1153.0,-673.0,305.0,-527.0,-337.0,-561.0,-73.375,-216.375,-33.375,34.625,-60.9375,-5.0625,93637.25,LivingRoom ,EATING,3,0,3
4751.836842105265,7147.828947368421,935.0201754385965,-278.42105263157896,-152.140350877193,882.3333333333334,8.701754385964913,-40.54385964912281,-10.175438596491228,1.7017543859649122,-4.981359649122807,0.8442982456140351,38.708333333333336,-17.327850877192983,8.087719298245615,93664.29824561403,4762.5,7132.7,933.65,-187.0,-174.0,906.0,3.0,-17.0,6.0,5.0,-4.8125,1.5,38.5,-12.3125,4.8125,93661.0,33.17310055698606,52.380546030407245,62.93894920281387,324.49790596773283,184.5104951134692,257.26191027081813,216.00909082327007,103.76864207309563,199.2806817035977,32.02176039208712,80.782113463291,14.769410289592415,2.2595695966056812,14.070158037353925,10.679775166514485,13.23140867174,4700.0,7100.0,850.0,-265.0,-358.0,874.0,-28.0,-74.0,-222.0,-73.375,-63.25,-7.9375,35.6875,-11.125,1.625,93684.25,4802.65,7230.85,1039.6,472.0,265.0,1515.0,735.0,160.0,776.0,57.5625,174.75,38.125,43.125,-3.4375,33.75,93684.25,4704.7,7082.9,844.35,-1153.0,-617.0,305.0,-527.0,-337.0,-561.0,-73.375,-216.375,-33.375,34.625,-60.9375,-5.0625,93637.25,LivingRoom ,EATING,3,0,3
4773.315789473684,7178.028070175439,913.3973684210526,-368.8070175438597,-60.70175438596491,788.0877192982456,7.964912280701754,-36.45614035087719,-20.92982456140351,4.362938596491228,15.192982456140351,1.7280701754385965,40.43201754385965,-25.88157894736842,0.618421052631579,93660.66666666667,4778.0,7197.4,924.75,-265.0,-57.0,887.0,-10.0,-24.0,6.0,10.1875,12.0625,1.5,40.5625,-14.9375,1.5,93660.0,25.70624777776851,45.345322858458516,85.29572109780176,369.424187012538,154.73006044078838,373.5416538592715,199.7747807722022,111.0474593160572,222.50552638795955,32.81940709316753,85.24727792108698,14.122108245533274,2.813449261971276,25.022006732072988,7.029976910644282,11.93942424032567,4800.0,7200.0,850.0,-265.0,-184.0,602.0,-11.0,-24.0,-222.0,10.1875,-63.25,-7.9375,42.375,-10.125,1.625,93644.25,4805.3,7230.85,1039.6,472.0,393.0,1515.0,735.0,316.0,776.0,62.25,280.25,39.4375,44.875,-3.4375,15.3125,93684.25,4713.05,7085.6,736.85,-1316.0,-395.0,-466.0,-527.0,-337.0,-561.0,-73.375,-161.75,-33.375,34.625,-83.6875,-30.0625,93644.25,LivingRoom ,EATING,4,0,4
4761.5666666666675,7198.410526315789,861.1763157894737,-551.0175438596491,56.40350877192982,503.2631578947368,-2.736842105263158,-43.24561403508772,-13.75438596491228,-3.494517543859649,26.834429824561404,10.945175438596491,59.83771929824562,-39.603070175438596,-29.655701754385966,93654.82894736843,4775.25,7198.15,881.2,-723.0,2.0,602.0,-11.0,-36.0,-21.0,-7.6875,17.0625,8.6875,41.125,-35.0,-1.0,93655.0,40.68097608804627,17.40807678113936,136.35481751444829,394.7516620442741,245.54682850215897,535.956672233193,157.14989731324647,99.31934078332421,202.04846313108666,31.550955457425886,72.90016324940316,19.118127522554914,82.73934846919754,29.20968034185857,48.35866874744933,11.279243528999016,4800.0,7200.0,950.0,-932.0,75.0,-466.0,-28.0,-24.0,-76.0,10.1875,-63.25,14.0,35.6875,-51.875,1.625,93646.0,4805.3,7230.85,1039.6,436.0,520.0,1515.0,735.0,316.0,776.0,62.25,280.25,46.625,358.125,-3.4375,7.875,93676.75,4685.65,7152.6,660.35,-1316.0,-395.0,-466.0,-383.0,-285.0,-561.0,-73.375,-139.0,-29.875,1.6875,-83.6875,-113.75,93634.5,LivingRoom ,EATING,5,0,10
4741.600892857144,7201.492857142856,779.3125,-704.7142857142857,176.39285714285714,329.92857142857144,-17.214285714285715,-30.410714285714285,-35.857142857142854,3.872767857142857,6.839285714285714,4.426339285714286,60.003348214285715,-49.62388392857143,-44.27232142857143,93651.76785714286,4729.475,7199.575,741.15,-795.0,246.5,324.0,-20.5,-26.0,-37.0,4.75,10.375,1.0625,42.59375,-53.59375,-21.15625,93649.25,41.45268879432577,15.016710172856909,103.00913121484115,310.6693485940384,227.79653429971458,487.51640931423975,113.86989613920461,78.80257881929644,149.47902602298163,25.744499534669234,91.5876131843095,24.117430239466216,83.95769482206877,24.052459508142363,48.26559661454981,12.968743643403231,4700.0,7200.0,700.0,-932.0,75.0,481.0,-24.0,-24.0,-76.0,13.5625,-198.6875,14.0,42.375,-52.1875,-103.0,93634.5,4805.3,7230.85,981.8,-90.0,520.0,1173.0,333.0,316.0,456.0,62.25,280.25,46.625,358.125,-6.125,7.0,93676.75,4685.65,7163.8,660.35,-1316.0,-332.0,-466.0,-340.0,-206.0,-521.0,-44.75,-198.6875,-44.8125,0.4375,-83.6875,-118.1875,93634.5,LivingRoom ,EATING,4,0,5
4728.5753968253985,7198.284126984128,765.1039682539682,-721.968253968254,304.031746031746,310.1111111111111,-27.063492063492063,-26.015873015873016,-45.98412698412698,3.9444444444444446,11.158730158730158,9.78670634920635,56.69940476190476,-49.10912698412698,-49.58829365079365,93647.29761904762,4717.4,7197.4,760.5,-779.0,352.0,438.0,-24.0,-24.0,-47.0,6.0625,14.75,5.3125,42.8125,-52.1875,-41.3125,93646.0,39.14124018612252,13.990434016985137,73.20980913343385,261.33250160530986,261.21088799702153,415.0236336492842,119.96785497089829,138.62324108817418,135.29078504531327,26.61713809203712,87.87039893643701,34.71725081858126,79.8096279963147,21.2423876553021,41.95030036808869,10.90869891332449,4700.0,7200.0,700.0,-932.0,75.0,481.0,-24.0,-24.0,-100.0,13.5625,-0.5625,14.0,26.25,-52.1875,-103.0,93634.5,4805.3,7221.0,929.8,-90.0,1452.0,1006.0,333.0,734.0,456.0,62.25,280.25,98.9375,358.125,-14.25,6.625,93676.75,4675.4,7163.8,660.35,-1316.0,-223.0,-466.0,-340.0,-294.0,-521.0,-45.6875,-198.6875,-44.8125,0.4375,-83.6875,-118.1875,93634.5,LivingRoom ,EATING,4,2,3
4695.153174603174,7199.297619047618,753.1357142857142,-645.1587301587301,407.76190476190476,398.4920634920635,-41.285714285714285,-29.841269841269842,-37.34920634920635,0.48115079365079366,-13.913690476190476,8.506944444444445,53.392857142857146,-40.660714285714285,-56.173611111111114,93649.48412698413,4701.0,7196.2,763.6,-618.0,391.0,550.0,-28.0,-28.0,-34.0,3.75,-0.6875,1.5625,32.0,-32.375,-41.3125,93645.25,26.898484297470766,17.277884028366923,57.99125450512638,233.79417514952198,172.8292756605362,418.3040980965677,82.72719032115849,128.40688936763158,95.07894151875958,27.74447015821277,62.99957940024913,34.80142782875799,80.5736672580735,18.91901216917451,35.4012310212244,15.624104685050643,4700.0,7200.0,800.0,-777.0,258.0,550.0,-24.0,-73.0,-71.0,13.5625,-0.5625,-44.8125,26.25,-52.1875,-103.0,93686.5,4742.7,7244.55,857.05,-163.0,1452.0,1026.0,138.0,734.0,258.0,56.3125,87.0,98.9375,358.125,-16.5,-20.25,93686.5,4642.55,7163.8,660.35,-1061.0,142.0,-433.0,-330.0,-294.0,-331.0,-53.6875,-198.6875,-44.8125,0.4375,-82.375,-118.1875,93634.5,LivingRoom ,EATING,0,1,6
4683.2828125,7209.75859375,783.91875,-504.890625,458.65625,596.46875,-46.828125,-32.515625,-40.890625,5.1171875,-13.08203125,1.8369140625,32.787109375,-28.623046875,-39.826171875,93652.2109375,4674.799999999999,7209.35,790.925,-495.0,436.5,665.0,-32.0,-33.0,-44.0,4.0,-15.59375,-1.53125,29.875,-27.15625,-36.0,93647.75,29.57633414016409,17.362179647672594,43.76420268333398,239.07301914298662,174.77942731993863,279.4394598233206,103.25965955622101,131.47092045995305,94.20007703759529,25.564864834144835,69.13137355713275,34.81513789339557,11.070446089959717,13.84482530019812,19.924658030010132,14.878357214183868,4650.0,7200.0,800.0,-557.0,258.0,550.0,-136.0,-33.0,-49.0,26.25,-198.6875,-60.625,26.0,-35.5625,-42.8125,93686.5,4730.1,7244.55,857.05,-62.0,1452.0,1026.0,189.0,734.0,258.0,56.3125,158.375,98.9375,55.25,-9.5,-20.25,93686.5,4638.85,7168.9,683.05,-969.0,227.0,-433.0,-330.0,-294.0,-331.0,-53.6875,-198.6875,-60.625,0.4375,-65.625,-118.1875,93634.5,LivingRoom ,EATING,0,1,1
4679.29375,7210.4453125,798.20703125,-474.40625,509.25,633.703125,-44.625,-35.6875,-32.53125,3.552734375,4.37890625,5.61328125,31.666015625,-26.0556640625,-39.23046875,93655.7734375,4673.1,7212.25,795.5,-495.0,514.5,624.5,-35.5,-34.0,-32.5,3.0625,-4.875,1.09375,29.875,-27.15625,-42.71875,93653.75,28.40105282533204,18.013424708868225,23.23762662249798,198.56634721430453,157.7601152644545,141.256457044434,98.68251159774003,129.26027330146047,88.50378321211554,24.244640778774503,48.68568696702747,32.342097477146254,6.969482609277523,9.012461866618878,8.321106171159359,13.448956909897724,4650.0,7200.0,800.0,-163.0,557.0,429.0,-136.0,-48.0,-80.0,2.375,-81.5,-0.25,26.0,-33.6875,-42.8125,93686.5,4746.35,7244.55,857.05,-62.0,1452.0,1026.0,189.0,734.0,258.0,51.5625,158.375,98.9375,55.25,-9.5,-20.75,93686.5,4638.85,7168.9,754.5,-865.0,227.0,380.0,-330.0,-294.0,-331.0,-53.6875,-81.5,-60.625,23.0,-41.1875,-50.6875,93639.25,LivingRoom ,EATING,0,1,0
4677.369298245614,7210.864912280703,794.0131578947369,-479.2456140350877,501.42105263157896,634.6140350877193,-38.91228070175438,-37.6140350877193,-31.92982456140351,2.718201754385965,-3.5592105263157894,1.8179824561403508,34.02412280701754,-26.62280701754386,-39.18421052631579,93660.66666666667,4670.95,7213.65,794.2,-500.0,515.0,640.0,-35.0,-35.0,-30.0,2.8125,-10.5625,1.125,30.5625,-27.3125,-42.3125,93657.5,29.40538512753653,18.040378730068575,19.033646257341864,193.71161192992852,101.60004699247033,146.85704350854328,91.2700625110827,58.37830883432553,100.29418507020854,25.32974534565108,52.53573988239436,19.309846098503765,8.7876799855987,9.154360215392671,7.40289086206203,11.674848321641415,4650.0,7200.0,800.0,-865.0,546.0,429.0,-8.0,-48.0,-80.0,2.375,-89.9375,-0.25,28.4375,-33.75,-43.0,93686.5,4746.35,7244.55,832.4,-62.0,661.0,1026.0,189.0,110.0,258.0,51.5625,158.375,48.4375,56.5625,-9.5,-25.625,93686.5,4638.85,7178.1,754.5,-865.0,227.0,380.0,-248.0,-171.0,-331.0,-67.5,-89.9375,-60.625,23.0,-41.1875,-50.6875,93645.0,LivingRoom ,EATING,0,0,0
4687.23947368421,7216.500877192982,819.5333333333333,-506.7719298245614,489.70175438596493,624.7017543859649,-37.08771929824562,-38.719298245614034,-30.70175438596491,3.9583333333333335,2.5416666666666665,-3.2960526315789473,43.86074561403509,-28.771929824561404,-39.00877192982456,93660.9649122807,4680.35,7219.2,812.15,-549.0,514.0,635.0,-29.0,-35.0,-34.0,2.9375,-10.375,-0.25,38.8125,-32.25,-42.3125,93657.5,28.456937606361144,18.44783545962405,37.1709832268077,203.15529049261266,121.60018869115422,145.62144721751775,94.14147421790142,68.99890122985524,96.07790085436638,26.521042577635633,50.70583456788962,23.483729782493675,16.962800759025093,9.403820960898306,8.198478178726534,10.628616884014964,4650.0,7200.0,800.0,-632.0,319.0,429.0,-29.0,-48.0,-80.0,-0.5,-19.5,-61.0625,30.0,-40.5,-43.0,93682.5,4746.35,7253.2,882.1,-62.0,661.0,1094.0,189.0,110.0,257.0,59.125,158.375,48.4375,76.9375,-9.5,-18.8125,93682.5,4638.85,7178.1,764.5,-865.0,140.0,380.0,-248.0,-171.0,-265.0,-67.5,-89.9375,-61.0625,23.0,-41.1875,-50.6875,93647.0,LivingRoom ,EATING,0,0,0
4725.384821428571,7212.059821428571,831.4044642857143,-589.8035714285714,390.0,635.7678571428571,-23.178571428571427,-33.910714285714285,-19.464285714285715,0.6919642857142857,-4.748883928571429,-3.388392857142857,59.310267857142854,-35.556919642857146,-32.8828125,93659.05357142857,4716.625,7212.9,826.375,-577.5,429.5,593.5,-26.5,-33.5,-28.5,2.875,-12.84375,0.65625,56.3125,-33.875,-33.78125,93656.25,47.030685263253034,18.5571192406846,40.14478034313678,133.8269465517936,163.8014318951733,179.21921478472098,83.69731333645221,67.74263510072228,139.1779716485615,31.921814679542656,45.111722881590026,17.876488790057152,19.14739836753625,6.008449032046295,11.567023454852748,11.565594970125272,4700.0,7200.0,800.0,-790.0,319.0,429.0,-107.0,12.0,-56.0,-67.5,-19.5,-61.0625,48.875,-40.5,-50.6875,93656.25,4817.3,7253.2,885.6,-206.0,655.0,1191.0,142.0,108.0,467.0,59.125,118.125,23.6875,85.25,-23.25,-13.9375,93682.5,4668.45,7178.1,764.5,-898.0,-12.0,370.0,-236.0,-177.0,-265.0,-67.5,-89.9375,-61.0625,28.1875,-50.0625,-50.6875,93647.0,LivingRoom ,EATING,0,0,1
4753.438392857142,7211.836607142858,834.0124999999999,-566.0357142857143,302.48214285714283,709.9285714285714,-17.875,-37.357142857142854,-11.142857142857142,-1.3694196428571428,-1.6495535714285714,-2.9017857142857144,73.3203125,-34.65513392857143,-25.3359375,93657.78125,4765.799999999999,7210.475,826.375,-548.0,311.5,680.0,1.5,-29.5,-29.0,-0.875,-11.03125,1.6875,78.78125,-33.625,-22.65625,93652.0,50.8840696548817,18.871528557522915,36.61804355282193,161.47017335445233,152.32226496017384,193.85654087896657,96.4197381716571,76.68244520486682,160.27050185930588,36.46289029769317,54.825392619966166,18.644974254073535,14.133158657942257,6.734862984022406,8.564947083136698,11.791856059085093,4800.0,7200.0,800.0,-790.0,319.0,658.0,-107.0,12.0,-122.0,28.75,-19.5,-61.0625,48.875,-45.0,-21.75,93651.75,4817.3,7253.2,885.6,-194.0,655.0,1302.0,142.0,108.0,467.0,59.125,118.125,26.0,93.625,-23.25,-13.9375,93682.5,4668.45,7185.1,781.35,-932.0,-12.0,370.0,-241.0,-177.0,-265.0,-67.5,-134.4375,-61.0625,46.4375,-50.0625,-43.0,93647.0,LivingRoom ,EATING,0,0,1
4761.780952380953,7228.526984126984,828.8166666666667,-568.1428571428571,261.7936507936508,728.015873015873,-8.301587301587302,-36.07936507936508,-9.222222222222221,-2.689484126984127,2.375,-4.099206349206349,81.64087301587301,-35.301587301587304,-22.11904761904762,93655.20238095238,4768.0,7221.55,810.85,-549.0,262.0,686.0,8.0,-22.0,-33.0,-0.5,3.5625,0.25,83.375,-34.0,-21.125,93651.75,45.733929337273494,26.52018681117733,37.020775553473285,169.11351953193824,121.59572874636658,192.09813453641533,112.99024150279169,78.27418756077925,162.5998893429418,36.09991344920464,70.48069935702142,19.930905835522758,12.163732864931776,6.357458667263609,5.806835974781656,12.542818368561674,4800.0,7200.0,800.0,-790.0,33.0,578.0,-107.0,12.0,-137.0,28.75,-19.5,-61.0625,75.6875,-45.0,-21.75,93651.75,4817.3,7281.5,885.6,-150.0,520.0,1302.0,433.0,108.0,467.0,59.125,126.3125,29.4375,97.625,-23.25,-13.9375,93682.5,4668.45,7191.5,781.35,-932.0,-12.0,370.0,-241.0,-204.0,-270.0,-78.0,-238.1875,-61.0625,49.75,-50.0625,-38.5625,93636.0,LivingRoom ,EATING,0,0,1
4780.16507936508,7225.125396825398,802.8134920634922,-560.8730158730159,230.61904761904762,737.3809523809524,-12.015873015873016,-35.03174603174603,-14.380952380952381,-3.1964285714285716,2.625,-2.0922619047619047,90.58432539682539,-35.385912698412696,-19.745039682539684,93650.13095238095,4773.6,7216.7,797.05,-544.0,224.0,712.0,-7.0,-25.0,-35.0,11.1875,7.875,-2.0,90.625,-35.375,-19.5625,93651.75,20.036635065590833,26.745513451032213,33.1862962467424,173.543477127955,102.75141135070706,197.85074437739993,115.29869932728757,71.44092263925043,168.08527296040876,35.56407293055927,75.36796077305468,14.923329158341405,8.421558706656814,6.4851678215530475,3.0510876396279114,10.142717189272645,4750.0,7200.0,800.0,-790.0,194.0,549.0,-96.0,-36.0,-137.0,28.375,-238.1875,-34.8125,80.125,-45.0,-23.25,93651.75,4817.3,7281.5,885.6,-129.0,421.0,1302.0,433.0,87.0,467.0,50.0625,126.3125,29.4375,107.4375,-23.6875,-13.9375,93666.75,4744.4,7191.5,754.25,-932.0,-12.0,370.0,-241.0,-213.0,-277.0,-78.0,-238.1875,-34.8125,77.625,-50.0625,-25.625,93633.75,LivingRoom ,EATING,0,0,1
4775.727777777777,7229.212698412699,796.747619047619,-559.2222222222222,222.52380952380952,743.4126984126984,-14.65079365079365,-40.92063492063492,-12.65079365079365,-0.9831349206349206,8.499007936507937,-2.2331349206349205,97.9702380952381,-35.11607142857143,-19.64186507936508,93648.71825396825,4771.25,7221.2,795.5,-554.0,222.0,730.0,-7.0,-36.0,-26.0,11.3125,18.5625,-3.125,96.9375,-36.0625,-19.3125,93651.75,16.412978680776583,26.221426796539653,22.384645926882325,168.31445651637125,105.90605349033933,200.5143092730449,113.49565271341378,85.67875138154182,162.79129313426964,32.54450311895587,74.8013687686613,15.814735937594964,9.303686137700902,6.018419906271311,3.308659641400404,11.162066021572516,4750.0,7200.0,800.0,-501.0,33.0,549.0,-60.0,-36.0,-122.0,26.875,69.5625,-33.8125,90.625,-36.8125,-16.5625,93636.0,4810.75,7281.5,844.45,-129.0,460.0,1302.0,433.0,153.0,415.0,44.5,126.3125,29.4375,112.6875,-23.6875,-14.375,93666.75,4744.4,7183.95,754.25,-932.0,-12.0,327.0,-241.0,-279.0,-345.0,-78.0,-238.1875,-34.8125,81.25,-51.8125,-27.4375,93633.75,LivingRoom ,EATING,0,0,1
4765.7359375,7216.03359375,773.003125,-662.703125,231.234375,597.9375,-16.5625,-32.515625,-19.203125,-0.673828125,12.2578125,-1.0029296875,102.7958984375,-43.990234375,-27.6201171875,93649.15625,4766.35,7219.3,791.475,-617.0,223.0,624.5,-14.0,-21.0,-22.5,8.65625,19.5,-2.15625,106.46875,-38.1875,-21.4375,93652.25,9.8268359032319,41.34487171389808,57.6044640266156,222.52466813049583,100.53598300592806,294.8625655109216,113.17227701921654,81.56232249266094,148.69657820888733,28.920810026227908,71.84379714349758,17.04873976254578,6.971768842061559,15.274725510735811,14.887600974759772,12.192039752778587,4750.0,7250.0,800.0,-501.0,175.0,556.0,18.0,-84.0,-43.0,15.75,-238.1875,-33.8125,90.625,-31.25,-21.4375,93636.0,4782.25,7281.5,844.45,-129.0,460.0,1197.0,433.0,153.0,415.0,44.5,126.3125,40.25,112.6875,-24.625,-14.375,93666.75,4744.4,7139.65,617.65,-1060.0,-12.0,-65.0,-240.0,-279.0,-345.0,-78.0,-238.1875,-34.8125,88.5,-73.0625,-72.0,93633.75,LivingRoom ,EATING,2,0,4
4756.27265625,7203.572656249999,727.67109375,-743.953125,243.5625,503.234375,-18.75,-37.0,-10.859375,2.9345703125,9.7177734375,0.001953125,103.7451171875,-50.259765625,-33.828125,93651.90625,4760.450000000001,7212.575,759.925,-789.5,252.0,459.5,-18.5,-36.5,1.5,7.84375,14.4375,-1.375,106.46875,-54.15625,-28.5625,93655.75,18.598239654041617,32.0800387049101,84.74021215413364,215.90190524516467,98.60324135822923,299.91844088110946,112.45189447683205,77.18026723712254,141.4130353870567,24.998483162534427,56.16357005402815,14.507972667686525,6.19954140056496,15.012677425294346,16.09581923436632,12.191063276413743,4750.0,7200.0,800.0,-501.0,272.0,388.0,-109.0,-84.0,7.0,15.75,13.875,-17.125,91.3125,-58.9375,-39.3125,93633.75,4782.25,7250.45,844.45,-129.0,461.0,1197.0,464.0,153.0,415.0,44.5,114.5,40.25,112.6875,-24.625,-14.375,93668.5,4719.5,7139.65,587.65,-1060.0,-12.0,-143.0,-240.0,-279.0,-370.0,-68.25,-171.5,-33.8125,89.3125,-73.0625,-72.0,93633.75,LivingRoom ,EATING,1,0,5
4744.7484375,7205.41953125,717.2039062499999,-751.75,216.140625,488.921875,-9.6875,-29.96875,-10.078125,-3.43359375,-3.9189453125,-0.1376953125,103.0615234375,-51.0029296875,-32.7783203125,93651.953125,4742.5,7219.8,714.35,-823.0,252.0,447.0,-27.0,-30.5,-1.0,0.59375,6.875,2.84375,103.78125,-57.46875,-38.46875,93654.5,23.139070526307435,32.78916610806835,83.58316517320951,234.7423443990629,131.5394644369707,303.18962083250074,118.52678687262727,84.57606114644746,124.77361146117192,24.905916405525172,61.874551745698234,19.768338945486253,6.43980148591658,16.041954348407998,19.490207049802834,10.842658532279758,4750.0,7200.0,800.0,-926.0,279.0,388.0,-65.0,-117.0,-236.0,15.75,-14.0625,-17.125,91.3125,-58.9375,-39.3125,93651.75,4782.25,7248.95,844.45,-180.0,461.0,1156.0,464.0,153.0,396.0,40.5,90.1875,40.25,112.6875,-22.625,3.3125,93668.5,4712.45,7139.65,587.65,-1060.0,-126.0,-143.0,-223.0,-279.0,-370.0,-65.25,-197.0,-67.0625,89.3125,-73.0625,-72.0,93636.0,LivingRoom ,EATING,2,0,5
4733.203906250001,7191.492968750001,718.984375,-681.40625,107.078125,515.109375,-1.890625,-22.75,-18.03125,-8.3193359375,-5.4287109375,2.1689453125,98.6845703125,-46.455078125,-24.224609375,93653.203125,4726.299999999999,7187.25,714.35,-828.5,217.0,447.0,-30.0,-30.5,-8.5,-9.0625,-0.125,6.90625,98.4375,-57.46875,-38.46875,93654.5,17.863077786066768,32.70307842796566,85.98762225201692,322.67545829964956,241.7937796859987,323.23003343422295,129.63491068938353,65.05821568850031,116.9711630111904,24.406458935012793,78.0398908373353,19.25804974861104,6.288694008478968,21.71808364785138,28.901993667223515,10.167239933096045,4750.0,7150.0,600.0,-926.0,279.0,388.0,-69.0,-117.0,-236.0,22.75,-14.0625,5.3125,89.4375,-58.9375,-39.3125,93651.75,4778.25,7244.4,857.85,42.0,461.0,1074.0,464.0,142.0,283.0,38.6875,215.3125,40.25,108.6875,-2.625,21.75,93668.5,4708.55,7138.75,587.65,-1060.0,-406.0,-143.0,-227.0,-145.0,-370.0,-65.25,-212.5,-67.0625,89.0625,-73.0625,-72.0,93636.75,LivingRoom ,EATING,4,1,5
4724.5734375,7190.22109375,751.2249999999999,-580.65625,0.8125,613.625,22.390625,-29.6875,-13.1875,-5.6064453125,4.01953125,2.2841796875,97.0966796875,-40.248046875,-7.98828125,93653.09765625,4723.575000000001,7187.25,791.075,-540.0,-71.0,662.5,-0.5,-36.0,-0.5,-8.8125,-9.1875,7.375,97.09375,-38.1875,4.125,93653.0,10.748872103067173,34.1268813711135,90.83959655121384,343.6885919175755,252.70259042271255,322.66241142412565,145.34825362332086,84.95879019704807,153.5827035359022,27.096861730389566,99.07343548812489,19.359072209084943,4.749333308573958,22.04481413961453,27.00767104018562,9.516132624860195,4700.0,7150.0,850.0,-926.0,-71.0,388.0,-69.0,-117.0,-106.0,-65.25,-14.0625,-6.6875,89.4375,-59.5,-39.3125,93651.75,4746.6,7244.4,857.85,140.0,461.0,1152.0,464.0,142.0,544.0,65.125,265.4375,32.625,104.5,-2.625,21.75,93668.5,4700.6,7138.55,587.65,-1133.0,-406.0,-150.0,-227.0,-256.0,-370.0,-65.25,-212.5,-67.0625,89.0625,-80.3125,-60.0,93636.75,LivingRoom ,EATING,5,0,4
4706.703125,7181.43046875,782.04609375,-602.46875,-43.96875,519.625,17.828125,-24.1875,-11.5625,-4.9755859375,7.5888671875,7.54296875,98.0791015625,-45.259765625,-23.1142578125,93651.45703125,4718.225,7177.425,807.05,-540.0,-73.5,662.5,-13.0,-16.0,-1.5,-4.4375,-2.125,10.46875,98.03125,-38.1875,4.125,93652.375,33.13755347633297,29.83106750798022,55.073962033095256,364.0007835657884,212.51995004391156,420.7664397565434,128.50144273015053,81.93587794878441,140.61541325347108,26.08622287639173,96.04312815531918,21.085800236229655,5.183945786952349,27.74789339107762,58.56660686617757,9.078860266852866,4700.0,7150.0,800.0,-963.0,-71.0,859.0,-69.0,-10.0,-32.0,27.1875,-212.5,7.6875,89.4375,-80.3125,10.8125,93661.25,4746.6,7240.65,857.85,140.0,337.0,1152.0,355.0,142.0,544.0,65.125,265.4375,36.0,106.375,-2.625,21.75,93668.5,4624.55,7138.55,673.15,-1133.0,-406.0,-150.0,-227.0,-256.0,-362.0,-65.25,-212.5,-67.0625,89.0625,-89.125,-179.5,93636.75,LivingRoom ,EATING,6,0,9
4673.483064516128,7182.535483870969,776.6338709677419,-688.3548387096774,-0.2903225806451613,325.741935483871,11.935483870967742,-26.56451612903226,-8.919354838709678,0.9939516129032258,21.65423387096774,11.91733870967742,96.5211693548387,-52.528225806451616,-44.628024193548384,93653.52016129032,4702.7,7176.25,812.675,-892.0,-55.0,119.5,-19.5,-14.0,-0.5,0.40625,5.3125,10.6875,95.21875,-66.15625,5.71875,93656.25,64.67029745116376,33.52100807775499,60.105766596996226,366.4285360413179,254.23407228648492,463.17775986005563,118.67269645621212,68.51100688587294,135.30939632561802,21.384044767166422,85.15868573952355,14.782498297520007,6.209189955314351,27.701938047647793,68.4055664394729,8.396220166736523,4700.0,7150.0,700.0,-963.0,265.0,-168.0,-69.0,-10.0,-44.0,27.1875,0.0,7.6875,91.6875,-80.3125,-110.875,93661.25,4746.6,7264.35,857.85,140.0,416.0,1152.0,355.0,141.0,544.0,65.125,265.4375,37.6875,106.375,-2.625,21.75,93664.25,4538.8,7138.55,685.45,-1133.0,-406.0,-174.0,-227.0,-256.0,-362.0,-46.375,-212.5,-18.125,80.25,-89.125,-179.5,93639.25,LivingRoom ,EATING,4,0,6
4647.823684210526,7188.321929824561,742.6763157894736,-805.5438596491229,175.49122807017545,94.15789473684211,2.982456140350877,-28.17543859649123,-1.368421052631579,2.6271929824561404,22.020833333333332,11.523026315789474,90.80701754385964,-61.01973684210526,-73.29605263157895,93652.28070175438,4642.6,7181.0,715.75,-925.0,265.0,-92.0,-19.0,-15.0,1.0,0.6875,9.1875,10.5,94.8125,-68.1875,-106.8125,93653.25,61.58361266346925,34.6704794374632,61.87024376038877,281.2069059159769,279.050438528786,383.18919187121827,102.64127741593016,67.66622992068642,122.30109676808581,20.730069107319338,69.2762351322029,16.738608998099554,16.15996814385477,20.762014990057406,63.309182025855414,8.930544268258139,4600.0,7200.0,700.0,-963.0,265.0,-168.0,-34.0,-10.0,-44.0,27.1875,0.0,28.3125,91.6875,-80.3125,-110.875,93661.25,4746.6,7264.35,839.65,140.0,575.0,1152.0,355.0,121.0,544.0,65.125,265.4375,37.6875,106.375,-10.875,16.5625,93664.25,4538.8,7138.55,651.45,-1133.0,-396.0,-202.0,-216.0,-256.0,-362.0,-38.0625,-172.625,-18.125,54.3125,-89.125,-179.5,93637.5,LivingRoom ,EATING,2,1,3
4638.375,7188.485344827586,711.5801724137931,-802.0172413793103,413.94827586206895,-12.448275862068966,-22.344827586206897,-29.74137931034483,-21.724137931034484,1.519396551724138,-16.157327586206897,19.48814655172414,86.99676724137932,-57.83081896551724,-97.3771551724138,93651.31896551725,4642.65,7180.275,705.8,-902.0,415.0,-109.5,-21.0,-14.5,-0.5,0.15625,1.4375,16.59375,91.90625,-60.5625,-108.3125,93653.25,48.98521729213714,33.780697551589896,36.77623176423558,246.58541748970538,263.28261264235095,280.13995076482587,69.50061257438935,60.949665843917295,91.82339897935053,26.564186496761476,62.69329675033761,22.257789443526423,16.16441879838585,21.050957678072987,37.92026919009388,8.770063851746027,4700.0,7150.0,700.0,-963.0,265.0,-168.0,-21.0,-10.0,-44.0,-30.375,0.0,28.3125,90.0625,-89.125,-110.875,93642.75,4704.35,7264.35,826.6,-164.0,1611.0,699.0,219.0,75.0,92.0,69.25,49.0625,81.0625,106.375,-9.625,1.625,93664.25,4538.8,7134.0,651.45,-1129.0,-76.0,-415.0,-195.0,-269.0,-442.0,-47.0,-289.75,-15.0625,54.3125,-89.125,-179.5,93637.5,LivingRoom ,EATING,2,1,2
4649.401754385965,7185.757894736842,742.0228070175438,-584.1754385964912,555.6315789473684,172.3859649122807,-20.210526315789473,-31.385964912280702,-31.771929824561404,-1.1392543859649122,-18.642543859649123,13.5625,84.11293859649123,-38.71491228070175,-80.96271929824562,93648.42543859649,4677.65,7175.2,705.4,-723.0,571.0,-92.0,-21.0,-23.0,-21.0,-1.25,2.5625,6.375,91.1875,-49.875,-103.1875,93650.25,55.34394886018339,34.90957040988918,76.93467780606355,342.01551357916804,191.63978780690792,408.7569463973306,65.68260718956004,59.74850697057653,89.30825780565145,25.577678479019486,61.320333336233524,23.112297428224533,13.953588361149695,24.25920014159628,30.901803133361227,8.58816733114635,4700.0,7150.0,700.0,-142.0,651.0,659.0,-29.0,-129.0,-44.0,-30.375,0.0,-1.6875,90.0625,-11.25,-110.875,93642.75,4713.7,7264.35,891.35,-82.0,1611.0,713.0,219.0,75.0,92.0,69.25,33.375,81.0625,100.125,-6.6875,-43.375,93664.25,4538.8,7134.0,651.45,-1010.0,265.0,-415.0,-195.0,-269.0,-442.0,-47.0,-289.75,-15.0625,54.3125,-69.8125,-115.875,93637.5,LivingRoom ,EATING,1,1,6
4682.490677966103,7162.333050847459,764.9991525423728,-418.3220338983051,628.6271186440678,373.9830508474576,-15.76271186440678,-32.08474576271186,-35.355932203389834,-0.05614406779661017,-18.03707627118644,10.49364406779661,85.03177966101696,-25.68114406779661,-64.25635593220339,93645.50847457627,4696.75,7161.3,756.5,-275.0,632.0,645.0,-15.0,-26.0,-23.0,-0.0625,2.0,-0.25,91.8125,-16.0,-44.5625,93642.75,34.25187318635023,23.73863722770128,75.85327004721444,287.3228654125797,140.27066180154816,399.8057067577314,61.98646653825579,57.32793991005433,85.64154702170663,24.730325401538,60.32296130311991,22.611036767253587,13.943207491114405,18.646567062490497,28.461915662387383,8.003900732974392,4700.0,7150.0,700.0,-265.0,630.0,659.0,-40.0,-31.0,-31.0,-1.25,4.25,-1.75,94.25,-16.625,-44.4375,93642.75,4715.3,7226.6,891.35,-82.0,1611.0,713.0,219.0,75.0,92.0,69.25,33.375,81.0625,100.125,-6.6875,-43.375,93656.25,4594.2,7114.65,651.45,-997.0,500.0,-415.0,-195.0,-269.0,-442.0,-47.0,-289.75,-12.8125,54.3125,-57.4375,-115.875,93633.75,LivingRoom ,EATING,2,1,4
4708.830769230769,7143.5,771.4007692307692,-339.75384615384615,632.7384615384616,536.6461538461539,-13.507692307692308,-28.215384615384615,-38.0,-0.5413461538461538,-22.869230769230768,1.0884615384615384,93.4875,-20.03076923076923,-51.225,93648.77307692308,4703.65,7149.3,764.1,-266.0,636.0,651.0,-8.0,-21.0,-24.0,-0.125,0.75,-1.0625,93.375,-16.5,-44.5625,93653.25,21.41831994080153,25.413185553959973,66.94276618658314,223.7683673166037,135.33884292340522,297.03947710958965,70.5605066319244,65.96862234892725,76.02240623658264,24.304443347282696,58.77524154718795,29.799820196252295,9.484698048452175,13.316878328740408,19.80737253741489,8.593320793477652,4700.0,7150.0,700.0,-265.0,630.0,649.0,-7.0,-31.0,-31.0,-1.25,4.25,-1.75,94.25,-16.625,-44.875,93654.0,4754.75,7181.95,891.35,-82.0,1611.0,718.0,219.0,164.0,74.0,69.25,29.8125,81.0625,122.4375,-6.6875,-24.625,93658.75,4674.5,7088.95,670.15,-997.0,435.0,-415.0,-195.0,-269.0,-442.0,-56.375,-289.75,-66.75,60.125,-56.125,-115.875,93633.75,LivingRoom ,EATING,2,1,2
4722.995238095238,7154.317460317459,804.1984126984128,-307.4761904761905,542.3650793650794,701.1746031746031,-10.857142857142858,-16.984126984126984,-15.174603174603174,-3.5416666666666665,1.1111111111111112,-7.25,102.67162698412699,-17.717261904761905,-37.5625,93650.21428571429,4724.05,7149.3,814.15,-275.0,632.0,658.0,-11.0,-21.0,-23.0,-0.0625,4.25,-1.6875,94.75,-16.5625,-44.1875,93654.0,21.486131525387826,41.27720526018135,61.82741194977822,143.57473687638932,156.75749728299786,116.1045885123853,77.35274400180187,48.75795784957604,71.01647688923566,19.395345717049516,27.629771802795474,22.177340359096846,13.789386259696217,7.0314928913500285,11.206749298467852,8.857502872867562,4700.0,7150.0,850.0,-265.0,630.0,649.0,-29.0,-31.0,-31.0,-1.25,4.25,-1.75,94.25,-16.625,-44.875,93633.75,4759.7,7247.05,891.35,-82.0,661.0,1145.0,245.0,164.0,282.0,33.375,72.75,35.0,128.3125,-6.6875,-14.75,93658.75,4690.55,7088.95,682.15,-673.0,153.0,502.0,-233.0,-167.0,-255.0,-61.0,-111.6875,-66.75,90.4375,-30.625,-46.75,93633.75,LivingRoom ,EATING,0,0,0
4743.4671875,7179.352343750001,801.4578125,-403.625,460.015625,705.203125,-6.34375,-6.0625,-16.921875,-2.60546875,2.4111328125,-8.8427734375,112.740234375,-24.396484375,-32.0517578125,93652.23828125,4743.5,7150.1,814.75,-326.0,472.0,656.5,-8.0,-14.5,-21.5,0.0,2.03125,-1.5625,118.28125,-22.8125,-27.03125,93654.0,30.337755065931887,65.64355069911973,58.43898474474066,179.6508518527774,172.2862597758152,130.80242943322926,89.15462201694383,53.97026665247896,87.24937889213591,23.41932992766686,48.99800040042469,22.44033643749606,16.89200428820594,9.87526508302787,12.242291644065284,7.4236096030630865,4750.0,7150.0,850.0,-265.0,630.0,591.0,-31.0,-19.0,-7.0,1.375,-111.6875,-1.1875,94.25,-16.625,-44.875,93650.0,4808.05,7294.0,872.7,-140.0,660.0,1145.0,245.0,164.0,282.0,47.875,168.3125,35.0,136.125,-13.4375,-14.75,93658.75,4696.75,7088.95,682.15,-949.0,153.0,459.0,-233.0,-167.0,-255.0,-61.0,-111.6875,-66.75,92.3125,-52.8125,-46.75,93633.75,LivingRoom ,EATING,1,0,0
4759.59921875,7218.1578125,797.84375,-512.640625,366.671875,700.9375,-7.796875,-1.640625,-9.109375,-2.083984375,2.37890625,-9.224609375,123.6181640625,-31.8232421875,-26.5791015625,93655.609375,4749.925,7246.15,804.325,-503.0,326.0,663.5,-8.5,-5.0,-11.5,-0.5,2.40625,-2.8125,127.84375,-27.90625,-23.125,93655.25,23.0465668899233,77.41144875477723,55.9730416262051,203.4341956855001,158.49290752620797,149.5663440411688,95.6759045958704,63.643692486011275,106.32252776676393,27.420563522882794,52.246154870810564,22.689607610000305,14.919514215051791,11.498390774914393,10.306478173205406,3.4080538947038894,4750.0,7250.0,850.0,-266.0,251.0,591.0,-31.0,0.0,-7.0,-39.5,-111.6875,-66.75,95.375,-42.4375,-44.875,93650.0,4808.05,7327.95,872.7,-140.0,660.0,1145.0,245.0,164.0,332.0,47.875,168.3125,35.0,140.1875,-16.5,-14.75,93661.25,4724.05,7088.95,682.15,-949.0,72.0,459.0,-233.0,-167.0,-255.0,-61.0,-111.6875,-66.75,94.75,-52.8125,-46.75,93650.0,LivingRoom ,EATING,0,0,0
4738.942063492064,7262.150793650794,812.073015873016,-604.5079365079365,308.44444444444446,685.984126984127,-8.761904761904763,7.936507936507937,-3.3015873015873014,1.121031746031746,4.392857142857143,-1.6369047619047619,134.2043650793651,-38.198412698412696,-23.574404761904763,93657.20634920635,4749.85,7272.9,807.6,-672.0,307.0,639.0,-11.0,3.0,-10.0,1.125,-1.625,0.75,135.4375,-43.5,-22.9375,93658.0,58.98347855499472,44.585774973696765,39.0340812886397,179.40213191597223,83.9701901363884,157.15438187967783,87.65211925114298,52.94271798471256,106.32491816712717,25.042632180729292,48.55532810797195,14.720668010530883,6.908133194103205,10.111372871728472,5.265947087914851,5.475484159351926,4750.0,7300.0,800.0,-744.0,251.0,618.0,-32.0,24.0,-178.0,27.4375,-1.6875,3.6875,128.3125,-48.125,-20.5,93650.0,4808.05,7327.95,872.7,-147.0,454.0,1145.0,245.0,110.0,332.0,47.875,168.3125,35.0,143.5,-19.4375,-14.75,93671.5,4579.5,7142.85,754.9,-949.0,72.0,459.0,-233.0,-144.0,-255.0,-61.0,-79.5,-39.6875,118.5625,-52.8125,-32.5625,93650.0,LivingRoom ,EATING,0,0,0
4704.8890625,7280.8375,799.15546875,-666.703125,317.453125,633.359375,-5.515625,3.734375,0.765625,2.5595703125,3.3681640625,-1.224609375,138.6494140625,-42.5185546875,-25.9677734375,93658.859375,4740.1,7281.125,790.675,-697.5,336.0,619.5,-5.0,1.5,2.5,0.59375,-0.65625,0.78125,139.03125,-44.25,-25.75,93658.5,82.05873112998218,23.947841802219394,34.27264066554377,146.98371356572613,77.0382155604998,111.76141924362453,69.62712301912693,52.12903471119176,93.83872388939695,23.984358095329082,52.52977721912506,11.625377184687812,4.838713359216089,7.515094595987754,4.815314217713625,6.95975890729119,4750.0,7300.0,800.0,-744.0,370.0,618.0,-32.0,0.0,-178.0,6.4375,-1.6875,-5.9375,133.5,-48.125,-32.25,93665.25,4808.05,7338.4,872.7,-147.0,454.0,1019.0,179.0,109.0,332.0,47.875,168.3125,20.25,147.6875,-19.4375,-16.625,93671.5,4572.75,7229.95,754.9,-949.0,72.0,457.0,-210.0,-144.0,-212.0,-48.375,-85.25,-28.3125,124.1875,-52.8125,-34.75,93650.0,LivingRoom ,EATING,1,0,0
4684.258870967743,7290.184677419357,784.382258064516,-673.0806451612904,325.03225806451616,632.0806451612904,-4.225806451612903,-3.8870967741935485,11.919354838709678,-0.43951612903225806,-0.07560483870967742,2.494959677419355,140.5383064516129,-43.16431451612903,-27.349798387096776,93661.56854838709,4689.975,7288.174999999999,779.175,-693.0,353.5,622.5,-4.0,0.0,2.5,0.59375,-1.6875,1.46875,141.3125,-43.9375,-27.28125,93662.5,70.50251508372325,30.63288384799995,24.673485963107343,122.09339322186685,82.73520228087257,118.66073671994964,73.0493700907164,60.96629136856188,113.71423752534415,25.34834404992772,51.48302324570224,11.057067750174728,3.865442252341535,4.702227327339943,4.139094457728327,7.886771627905494,4600.0,7300.0,800.0,-716.0,370.0,697.0,-32.0,-8.0,-17.0,6.4375,-6.125,-5.9375,135.125,-47.375,-32.25,93665.25,4795.85,7353.45,840.7,-283.0,481.0,1019.0,196.0,109.0,404.0,43.125,221.75,29.8125,147.6875,-27.75,-16.625,93677.25,4572.75,7229.95,746.85,-911.0,72.0,429.0,-212.0,-171.0,-184.0,-55.6875,-125.25,-28.3125,132.625,-51.125,-34.75,93650.5,LivingRoom ,EATING,0,0,0
4681.209016393442,7263.693442622951,770.3401639344263,-646.3934426229508,343.7049180327869,648.0819672131148,-1.4262295081967213,-8.737704918032787,12.065573770491802,-1.6967213114754098,-0.35450819672131145,3.1506147540983607,138.765368852459,-41.11065573770492,-28.561475409836067,93664.70491803279,4689.65,7275.05,773.7,-681.0,365.0,624.0,-6.0,0.0,0.0,0.125,-3.5,1.6875,141.4375,-41.8125,-28.6875,93665.25,67.52171595629859,53.345108706898465,40.01817068498606,128.2575895985009,95.78297417639787,147.63008897036843,82.42884992856838,78.79401450181018,139.12894125623887,29.137224357129575,51.94755934638089,11.973116463350108,6.2457970841076,5.119158172607569,3.2393554006754566,8.399219730219153,4750.0,7300.0,800.0,-791.0,370.0,697.0,-212.0,-97.0,0.0,6.4375,-6.125,-6.25,131.1875,-45.125,-32.25,93665.25,4769.9,7353.45,840.7,-283.0,573.0,1121.0,196.0,116.0,404.0,44.4375,221.75,29.8125,147.6875,-27.75,-21.4375,93677.25,4572.75,7160.45,693.1,-911.0,47.0,376.0,-212.0,-290.0,-239.0,-68.375,-125.25,-30.6875,126.1875,-51.125,-34.75,93650.5,LivingRoom ,EATING,0,0,0
4705.335245901639,7233.263114754099,753.1827868852461,-599.9180327868852,324.42622950819674,684.0491803278688,10.885245901639344,-20.75409836065574,13.80327868852459,-3.817622950819672,3.0758196721311477,2.0204918032786887,134.60553278688525,-38.567622950819676,-26.892418032786885,93664.9344262295,4741.55,7239.85,746.85,-625.0,318.0,675.0,3.0,-8.0,-18.0,0.125,1.0,1.6875,132.625,-38.25,-26.6875,93666.75,65.15345369731777,66.84811197884808,43.33478576275444,176.52122583247294,113.68809070088703,210.09826480558317,134.07884475942453,90.07638531411455,190.91933896038674,35.58300575891246,66.66469083799365,14.189494726290704,7.863504680308929,5.439825832579368,3.697464135706534,9.22416455559168,4750.0,7150.0,750.0,-716.0,261.0,697.0,-212.0,-290.0,0.0,43.125,53.25,-6.25,126.1875,-40.5625,-26.25,93651.25,4769.9,7353.45,840.7,92.0,573.0,1487.0,682.0,116.0,755.0,44.4375,221.75,29.8125,147.6875,-27.25,-19.5625,93677.25,4572.75,7146.9,693.1,-936.0,-10.0,376.0,-265.0,-290.0,-257.0,-77.1875,-147.0625,-30.6875,121.6875,-51.125,-34.75,93650.5,LivingRoom ,EATING,1,0,2
4745.605737704917,7207.9073770491805,739.3160953800299,-567.2950819672132,298.9672131147541,707.2295081967213,15.60655737704918,-27.081967213114755,9.245901639344263,-3.627049180327869,9.96516393442623,-0.42008196721311475,129.76741803278688,-37.03176229508197,-25.107581967213115,93661.09836065574,4755.0,7173.8,731.55,-576.0,297.0,686.0,-6.0,-19.0,-50.0,-0.5,-1.75,1.4375,128.1875,-36.5625,-25.5625,93664.5,27.974442351249643,61.74549567651711,34.73811442866569,197.99868217257534,125.13192601052629,239.81280153782612,141.37093981066553,92.72401614144475,201.63115299457942,37.19063706518359,80.1422104538614,15.34061250656253,6.794214097414264,7.3568245576281965,5.066807981181979,12.450675909407206,4750.0,7150.0,750.0,-627.0,261.0,590.0,-212.0,-290.0,0.0,-77.1875,-147.0625,-6.25,126.1875,-38.875,-26.6875,93652.75,4776.9,7353.45,840.7,92.0,573.0,1487.0,682.0,116.0,755.0,62.0,221.75,29.8125,147.625,-24.6875,-15.5,93677.25,4667.8,7146.9,693.1,-990.0,-10.0,190.0,-265.0,-290.0,-257.0,-77.1875,-147.0625,-45.25,121.6875,-70.1875,-43.9375,93637.0,LivingRoom ,EATING,1,0,2
4750.679365079364,7187.180952380952,714.1342712842712,-617.8412698412699,290.92063492063494,586.1587301587301,16.53968253968254,-26.841269841269842,-0.42857142857142855,-6.904761904761905,5.836309523809524,-1.996031746031746,124.68055555555556,-41.69047619047619,-36.0218253968254,93663.28174603175,4754.3,7174.95,719.1,-599.0,300.0,609.0,0.0,-10.0,-30.0,-12.25,18.875,-0.25,125.75,-36.9375,-25.375,93664.5,16.386957921254115,26.16209001431364,24.600549939685795,246.10515758900684,122.18643892697294,386.89167469299286,149.51467997802038,104.96192955746389,190.6638415138788,36.814878642452776,101.72887329993596,18.81368845048411,5.3280620161246475,13.171731459782253,29.81590896248754,12.77065784291911,4750.0,7150.0,700.0,-949.0,261.0,877.0,-113.0,44.0,0.0,-77.1875,-247.125,-6.25,123.375,-38.875,-26.5,93652.75,4776.9,7240.0,751.7,92.0,573.0,1487.0,682.0,121.0,755.0,62.0,248.125,40.5,134.3125,-24.6875,-15.4375,93680.75,4711.8,7146.9,646.3,-1050.0,-10.0,-214.0,-265.0,-290.0,-310.0,-77.1875,-247.125,-62.25,107.0625,-74.375,-125.1875,93637.0,LivingRoom ,EATING,1,0,8
4726.37109375,7197.55,708.1837357954546,-701.765625,295.65625,408.515625,1.546875,-22.96875,-0.703125,-9.8671875,18.6103515625,6.173828125,118.2802734375,-48.208984375,-50.3212890625,93659.3046875,4741.425,7202.25,708.1,-754.5,298.0,487.5,-40.5,-7.5,-1.5,-14.84375,30.875,5.5625,123.375,-43.21875,-27.09375,93655.5,40.231528152866375,29.915017198194167,26.118910589096178,281.766803399577,129.2611751025376,452.6081381682295,148.8310995073125,91.11025394002517,163.54084773831966,33.08464616712665,103.6843768020563,26.235735137557807,14.17681268411184,16.464613098035617,39.5478128019627,12.249430562566689,4750.0,7200.0,700.0,-1007.0,261.0,877.0,-67.0,44.0,-30.0,-77.1875,-247.125,-8.25,123.375,-36.5625,-23.0625,93652.75,4776.9,7252.45,747.1954545454545,92.0,598.0,1487.0,682.0,121.0,755.0,62.0,248.125,59.75,129.6875,-24.6875,-15.4375,93680.75,4631.65,7146.9,646.3,-1185.0,-10.0,-218.0,-325.0,-290.0,-310.0,-77.1875,-247.125,-62.25,66.8125,-77.75,-125.1875,93637.0,LivingRoom ,EATING,3,0,9
4700.2890625,7193.196093750001,691.8829545454546,-759.375,378.265625,183.578125,-25.890625,-23.5,0.90625,-5.3974609375,11.794921875,6.5732421875,103.8486328125,-50.5859375,-70.6083984375,93656.0078125,4709.8,7207.775,687.5477272727273,-790.0,339.0,-46.5,-46.0,-8.0,2.5,-7.65625,12.8125,5.75,117.90625,-47.03125,-94.375,93654.75,50.521799843479464,42.8057279069269,33.22067368632309,240.15236565597002,189.1066921656275,446.2348233936108,117.13580738199462,81.20716208933283,119.09536245019306,29.5984124195266,99.37726391847569,25.542180223531556,25.010590030555562,14.919860741429552,42.04071575300824,12.146588843610138,4750.0,7200.0,650.0,-1007.0,446.0,877.0,-81.0,44.0,27.0,-70.375,-247.125,-8.25,123.375,-45.3125,-102.3125,93637.0,4776.9,7252.45,747.1954545454545,-126.0,699.0,1115.0,369.0,121.0,410.0,62.0,248.125,59.75,128.5625,-24.6875,-15.4375,93680.75,4611.8,7089.55,635.4,-1185.0,38.0,-436.0,-325.0,-278.0,-310.0,-70.375,-247.125,-62.25,59.875,-77.75,-125.1875,93637.0,LivingRoom ,EATING,2,0,7
4689.65234375,7182.5625,685.2496448863636,-784.65625,455.296875,95.796875,-30.09375,-20.375,-3.59375,-9.7041015625,-8.2314453125,3.51171875,98.8740234375,-52.0400390625,-79.5361328125,93659.4921875,4689.674999999999,7202.25,685.0,-791.5,446.0,-46.5,-41.0,-3.5,2.5,-8.375,1.4375,3.875,103.09375,-47.375,-94.375,93658.75,40.97830574875798,48.70445532242367,27.860404598081658,202.12821789214382,174.90974359016647,347.08551527068124,112.98078481801778,82.59587983113543,94.38837679822223,24.90421940395791,90.80287939656583,30.578576481872698,22.531469098255275,12.673319090290551,34.522761076242425,10.14761766845983,4650.0,7200.0,700.0,-1007.0,446.0,-436.0,-67.0,-35.0,27.0,-8.125,1.4375,-85.25,123.9375,-50.6875,-102.3125,93645.25,4747.95,7252.45,767.85,-126.0,699.0,999.0,369.0,121.0,401.0,60.9375,248.125,59.75,128.0,-29.1875,-15.4375,93680.75,4611.8,7089.55,635.4,-1185.0,38.0,-436.0,-325.0,-278.0,-310.0,-70.375,-247.125,-85.25,59.875,-77.75,-125.1875,93645.25,LivingRoom ,EATING,1,0,4
4687.684126984128,7186.95634920635,700.495238095238,-817.8095238095239,430.12698412698415,117.95238095238095,-38.87301587301587,-15.634920634920634,6.904761904761905,-5.374007936507937,2.0188492063492065,1.7450396825396826,100.02380952380952,-54.78174603174603,-72.2420634920635,93656.98015873016,4687.9,7184.25,697.0,-800.0,446.0,113.0,-40.0,-3.0,-1.0,-5.1875,7.0625,2.8125,102.8125,-48.5625,-71.0,93658.75,40.07756172300197,59.00448144001535,39.01912962840824,161.11555231620775,201.4962172112301,300.73171135080116,89.19035317130616,59.60009244074385,81.18690389499591,23.202774868552734,66.09351348325774,29.8139841670603,23.817212906139112,13.4812111308824,33.992320964956384,6.821795831120652,4650.0,7150.0,700.0,-800.0,596.0,-436.0,-67.0,-35.0,27.0,-28.875,-104.125,4.5,123.9375,-50.6875,-102.3125,93645.25,4747.95,7338.15,783.5,-384.0,699.0,743.0,233.0,89.0,401.0,60.9375,179.9375,59.75,126.75,-35.5,-16.25,93668.25,4611.8,7089.55,635.4,-1185.0,38.0,-436.0,-325.0,-203.0,-165.0,-48.125,-114.9375,-85.25,59.875,-78.9375,-116.125,93645.25,LivingRoom ,EATING,0,0,3
4716.385714285715,7227.03888888889,701.5206349206348,-751.2063492063492,362.1746031746032,282.1904761904762,-21.396825396825395,-19.444444444444443,14.031746031746032,5.107142857142857,-30.633928571428573,-13.209325396825397,108.30753968253968,-50.857142857142854,-53.30853174603175,93652.0753968254,4725.3,7184.25,698.25,-777.0,367.0,308.0,-21.0,-11.0,14.0,-3.125,-18.75,-6.625,121.5625,-47.375,-48.75,93658.75,53.81763368871332,109.51994200661636,40.15777014247902,227.70036612449908,246.69914678007586,360.67664264961127,97.22679500620546,55.70335536826444,90.24535878584601,28.335430142888047,74.38486639723388,25.632397532564312,27.321004483479435,15.612561293153934,37.92048509241591,13.931039470444642,4750.0,7150.0,700.0,-800.0,204.0,448.0,-119.0,4.0,-36.0,-28.875,-104.125,-51.3125,124.25,-50.6875,-17.8125,93625.0,4825.75,7417.9,783.5,180.0,699.0,1109.0,233.0,89.0,401.0,81.875,132.8125,26.9375,158.5,0.0,-2.5,93668.25,4611.8,7089.55,635.4,-1086.0,-47.0,-436.0,-276.0,-203.0,-170.0,-40.375,-212.9375,-100.6875,59.875,-78.9375,-116.125,93625.0,LivingRoom ,EATING,0,0,3
4754.388095238094,7280.14761904762,743.7452380952382,-565.5238095238095,271.0952380952381,530.8730158730159,-29.80952380952381,-22.666666666666668,-10.507936507936508,6.791666666666667,-26.04265873015873,-8.532738095238095,136.87698412698413,-37.445436507936506,-30.99404761904762,93653.44047619047,4744.15,7336.0,730.25,-716.0,229.0,535.0,-20.0,-10.0,-2.0,-3.5,-20.875,-8.5625,126.25,-45.875,-24.0625,93658.75,42.086160389293845,104.76431514647818,64.26942389601969,416.59765757254434,200.15781791809363,303.1053522831514,115.25089841408376,83.3823296821683,130.6774992374879,43.12109612998738,76.79127425422307,54.15099025044405,29.909583101780683,30.724559393214967,23.5058484976499,13.354481116786882,4750.0,7150.0,700.0,-1086.0,204.0,448.0,-119.0,4.0,-19.0,-28.875,-104.125,-51.3125,124.25,-78.9375,-17.8125,93625.0,4836.8,7417.9,955.8,351.0,633.0,1409.0,233.0,182.0,434.0,125.3125,132.8125,125.4375,194.3125,18.0625,-2.5,93668.25,4669.7,7124.45,663.65,-1086.0,-137.0,44.0,-323.0,-301.0,-315.0,-95.875,-212.9375,-144.4375,93.125,-78.9375,-86.8125,93625.0,LivingRoom ,EATING,5,0,3
4754.499999999999,7329.5873015873,828.9285714285714,-444.6507936507937,244.87301587301587,632.1428571428571,-40.23809523809524,-31.317460317460316,-19.873015873015873,13.557539682539682,-8.995039682539682,0.9017857142857143,143.609126984127,-28.36706349206349,-24.51984126984127,93651.82936507936,4744.7,7339.45,764.9,-606.0,229.0,610.0,-25.0,-26.0,-1.0,3.8125,10.625,-2.3125,132.75,-23.875,-24.0625,93657.25,41.65887486285136,64.84198906439353,144.85700978347626,487.95468981645837,168.56256539831446,301.5505551763898,188.41038892369468,87.71982991996688,159.52242152685017,42.93679317747584,95.43106276058828,58.24298824513988,24.05033460869238,33.259973969556576,15.959400770651426,13.137135357330585,4750.0,7350.0,750.0,-1287.0,204.0,326.0,-14.0,-121.0,-149.0,-3.125,-241.5,-144.4375,123.9375,-78.9375,-28.375,93658.75,4836.8,7417.9,1109.0,383.0,611.0,1409.0,470.0,182.0,434.0,125.3125,184.4375,125.4375,194.3125,18.0625,-2.5,93665.25,4684.7,7165.7,663.65,-1287.0,-137.0,44.0,-790.0,-301.0,-422.0,-95.875,-241.5,-144.4375,123.4375,-78.9375,-71.0,93625.0,LivingRoom ,EATING,14,0,4
4735.9359375,7336.440624999999,899.5242187499999,-346.0625,298.984375,703.046875,-46.328125,-41.3125,-31.515625,13.56640625,-9.298828125,-12.72265625,147.2705078125,-19.17578125,-23.021484375,93649.3203125,4744.424999999999,7339.174999999999,949.55,-254.5,335.0,676.5,-28.5,-31.0,-7.5,10.875,8.125,-13.375,135.09375,-12.4375,-26.625,93656.5,61.887194144727104,47.31262111808528,158.7574867606393,440.899796952075,208.53110553154016,234.0057270827782,197.0195425555788,90.52385022919353,159.19110928627154,45.79243152633682,90.68556437441683,70.81955299690578,24.230038151954613,25.97180599652689,14.472762024534212,12.990875059880631,4750.0,7350.0,1100.0,-1287.0,-137.0,326.0,-14.0,-121.0,-198.0,-3.125,-241.5,-70.9375,124.9375,-46.75,-28.375,93657.25,4836.8,7417.9,1109.0,383.0,623.0,1409.0,470.0,182.0,434.0,125.3125,184.4375,125.4375,194.3125,18.0625,6.0625,93665.25,4623.9,7245.85,663.65,-1287.0,-137.0,228.0,-790.0,-301.0,-422.0,-95.875,-241.5,-168.125,117.4375,-68.9375,-49.625,93625.0,LivingRoom ,EATING,13,0,1
4706.40234375,7324.95625,947.06875,-316.109375,241.0,752.671875,-52.953125,-42.265625,-33.78125,6.30859375,8.08984375,-4.2529296875,155.732421875,-15.5400390625,-18.1767578125,93655.375,4686.775,7336.325,949.55,-306.0,335.0,742.5,-33.5,-28.0,-12.5,-0.1875,6.84375,5.3125,164.75,-14.625,-25.1875,93656.75,61.32696811541535,39.8002497599246,110.8351838370401,393.3818419316122,280.1874655886945,204.61012517324917,196.93576663611807,95.30656337223265,160.18129299947645,43.03283640780137,77.56109972691345,70.01989905449823,24.464382487806077,20.08459405987677,19.810738163012253,8.510497719203704,4650.0,7350.0,1100.0,-1287.0,-140.0,730.0,-14.0,-121.0,-198.0,-0.5625,-241.5,-70.9375,124.9375,-46.75,-28.375,93657.25,4836.8,7392.5,1109.0,383.0,623.0,1409.0,470.0,182.0,434.0,125.3125,185.875,125.4375,194.3125,18.0625,12.75,93669.0,4623.9,7245.85,751.9,-1287.0,-323.0,228.0,-790.0,-301.0,-422.0,-95.875,-241.5,-168.125,117.4375,-47.9375,-49.625,93637.5,LivingRoom ,EATING,10,0,2
4690.85859375,7324.34375,961.2398437500001,-477.75,198.25,714.984375,-25.78125,-35.515625,-18.921875,-0.3984375,7.50390625,-4.248046875,148.0009765625,-28.57421875,-16.3056640625,93655.3515625,4686.775,7332.625,937.9,-537.0,176.0,737.5,-22.5,-22.0,-2.0,-0.84375,6.1875,3.5625,146.34375,-30.875,-15.625,93656.75,41.257657831451176,40.405976003870926,90.45910291383171,367.8898213255167,277.6310215501577,207.60795563765762,216.72222501963273,73.11829775281862,144.62192688562516,34.729098823026256,83.5975112267616,56.18527908983393,18.72790527622233,17.78183581343145,19.924563578111613,9.23499627774695,4650.0,7350.0,900.0,-1287.0,-140.0,730.0,-107.0,-18.0,-198.0,-4.6875,-241.5,-70.9375,124.9375,-46.75,-28.375,93648.75,4765.95,7392.9,1109.0,383.0,623.0,1220.0,578.0,116.0,457.0,94.75,185.875,91.4375,175.125,13.25,12.75,93669.0,4623.9,7245.85,839.7,-1287.0,-323.0,205.0,-790.0,-216.0,-422.0,-107.1875,-241.5,-168.125,117.4375,-60.25,-49.625,93637.5,LivingRoom ,EATING,9,1,2
4700.8578125,7310.760937499999,891.43671875,-619.78125,153.921875,645.9375,-19.625,-15.390625,-18.09375,-0.541015625,4.8955078125,-2.1259765625,150.4208984375,-39.5634765625,-14.337890625,93656.21484375,4700.9,7298.75,879.3,-629.5,133.5,700.0,-22.5,-13.0,-11.0,-0.0625,0.625,3.8125,146.5,-38.59375,-10.125,93656.75,50.16026000757751,43.93690774962665,100.92636725119367,282.5974459690922,251.93475501353552,223.180606983074,162.21252960824194,68.84895295799856,124.83496645253825,32.83742952971197,85.99398111802776,53.035391854965674,16.846261692415993,15.542757734057387,18.87197008277905,8.633851242451755,4650.0,7300.0,900.0,-398.0,-140.0,517.0,-65.0,-63.0,-198.0,-2.1875,-227.0625,-70.9375,141.25,-46.75,-8.0,93648.75,4775.45,7392.9,1095.6,-23.0,623.0,1220.0,578.0,150.0,457.0,73.75,221.0625,91.4375,175.125,-2.9375,12.75,93669.0,4623.9,7245.85,729.95,-1270.0,-323.0,159.0,-379.0,-211.0,-331.0,-107.1875,-227.0625,-168.125,117.4375,-71.4375,-49.625,93637.5,LivingRoom ,EATING,4,0,1
4716.4265625,7297.88125,844.8375000000001,-615.734375,212.8125,620.984375,-18.984375,-16.515625,-6.765625,4.7177734375,-2.4755859375,16.1884765625,144.6240234375,-39.044921875,-19.814453125,93658.42578125,4718.875,7298.75,864.4749999999999,-604.5,167.0,645.0,-25.5,-17.5,2.0,4.5625,-8.40625,6.0,144.21875,-35.71875,-18.09375,93656.75,41.5375933846258,61.010939365184484,60.590408639054566,245.52711305281056,307.5414477163884,222.49433680593825,148.8833027818171,67.25596502429511,120.30143914318164,28.565674626872212,82.44923177679564,27.16177854657044,19.71198399500373,13.856059523171536,23.822393761699313,6.556330953394323,4750.0,7350.0,900.0,-378.0,-140.0,517.0,-164.0,-63.0,26.0,-2.1875,-227.0625,-3.3125,116.5625,-38.9375,-8.0,93648.75,4775.45,7392.9,940.05,-23.0,777.0,1220.0,578.0,150.0,457.0,73.75,221.0625,91.4375,175.125,-21.6875,12.75,93669.0,4643.45,7183.3,729.95,-1270.0,-323.0,159.0,-379.0,-211.0,-331.0,-107.1875,-227.0625,-49.3125,115.4375,-71.4375,-59.0625,93648.75,LivingRoom ,EATING,3,3,1
4715.484375,7269.05546875,869.4593749999999,-603.25,428.890625,521.921875,-20.8125,-13.375,-15.40625,5.763671875,0.763671875,11.6689453125,133.751953125,-38.0322265625,-36.8115234375,93657.85546875,4718.875,7266.175,871.525,-573.5,431.0,467.0,-29.0,-13.0,-8.5,5.78125,-0.375,4.71875,131.75,-33.46875,-39.0625,93657.75,43.907519039164626,58.87007022274352,87.27893883797246,234.77364985591262,276.0660213874256,190.36267013402485,140.74832599303363,56.33953192158111,108.6059893039901,27.27721461397725,76.79146922431372,29.842559094263027,13.53983031848344,13.99242457402431,21.186144991635096,5.3832862830576955,4750.0,7250.0,750.0,-595.0,769.0,386.0,-37.0,-63.0,-79.0,12.3125,-227.0625,-3.3125,116.5625,-38.9375,-58.6875,93648.75,4775.45,7392.9,1017.1,-23.0,777.0,1220.0,578.0,150.0,457.0,73.75,221.0625,91.4375,164.125,-21.6875,2.9375,93666.0,4622.5,7183.3,729.95,-1270.0,-59.0,159.0,-379.0,-145.0,-331.0,-107.1875,-227.0625,-49.3125,115.4375,-71.4375,-61.875,93648.0,LivingRoom ,EATING,3,0,1
4710.76171875,7219.05625,878.8062500000001,-533.4375,567.109375,498.703125,-34.796875,-18.171875,-9.203125,4.6025390625,-3.7236328125,13.396484375,125.763671875,-32.2607421875,-46.8701171875,93654.19921875,4711.9,7219.35,889.625,-484.5,653.5,465.5,-36.5,-19.0,-9.0,3.3125,-12.125,9.03125,125.15625,-30.4375,-51.59375,93656.75,42.40911921081483,54.11216782156489,90.58540892176735,232.14027471091083,204.65294798038823,141.9994052846366,83.69278281214737,53.8184941032326,71.59812440735297,17.693671686690312,66.09649106823801,26.419422594409102,10.658051235783832,15.523350126270913,14.584095663270116,9.693126726148105,4750.0,7200.0,950.0,-716.0,769.0,386.0,-18.0,-33.0,-9.0,-33.375,-36.875,-3.3125,116.5625,-34.3125,-58.6875,93666.0,4775.45,7318.7,1017.1,-64.0,777.0,812.0,290.0,150.0,168.0,55.25,221.0625,81.6875,146.875,-2.125,-7.625,93666.0,4622.5,7104.55,729.95,-1126.0,38.0,159.0,-195.0,-145.0,-254.0,-33.375,-216.9375,-43.5,107.5,-71.4375,-61.875,93628.75,LivingRoom ,EATING,1,0,0
4707.8953125,7202.292187499999,904.71484375,-299.984375,676.78125,523.6875,-38.03125,-32.046875,-6.703125,2.384765625,-12.103515625,8.3974609375,117.7451171875,-16.3232421875,-53.248046875,93654.265625,4706.975,7209.725,905.4749999999999,-406.5,687.0,535.0,-33.5,-30.0,-14.0,1.9375,-15.3125,6.3125,116.875,-23.4375,-52.125,93657.75,46.20392404034745,49.349124900774264,67.35146660573511,309.33269151141855,68.98227716951698,107.31527132853675,55.30635278817578,40.90035498254768,41.45897941587985,15.367030046310068,22.831245610668564,21.55546776053431,7.783157633247936,18.045111827005794,5.401202384301162,10.330440743374938,4700.0,7200.0,900.0,-639.0,708.0,646.0,-25.0,-33.0,-34.0,2.625,-36.875,-3.3125,107.5,-34.3125,-58.6875,93628.75,4840.35,7284.4,1017.1,293.0,777.0,767.0,56.0,145.0,168.0,55.25,45.0,47.5625,131.8125,18.5625,-40.0625,93666.0,4622.5,7103.9,762.2,-716.0,398.0,290.0,-164.0,-145.0,-81.0,-33.375,-47.4375,-43.5,107.25,-36.3125,-61.875,93628.75,LivingRoom ,EATING,2,0,0
4755.48515625,7216.15546875,862.9757812500001,-101.5625,686.65625,524.828125,-36.8125,-30.375,-17.234375,-2.0234375,-11.55859375,5.6083984375,115.744140625,-4.25390625,-52.96484375,93652.2265625,4726.775,7222.65,893.075,-26.5,686.5,529.5,-34.5,-33.0,-22.5,0.46875,-11.25,4.0,110.09375,-0.90625,-52.3125,93655.25,97.858969902873,57.01898884289048,120.54087135095145,386.52242280795735,33.64719793045817,94.75675704641006,45.69841614427395,19.183739807865226,28.957956489497302,9.10603255370019,20.443210014317327,19.413611175728704,8.524588900141675,22.84213224137233,4.462835329871316,10.262595701659219,4700.0,7250.0,900.0,-639.0,688.0,646.0,-70.0,-33.0,-23.0,-0.75,-36.875,2.375,109.375,-29.6875,-52.6875,93660.25,4922.3,7296.9,1017.1,378.0,769.0,684.0,56.0,35.0,95.0,9.5,45.0,47.5625,131.8125,23.9375,-46.6875,93664.0,4622.5,7103.9,606.65,-716.0,614.0,290.0,-158.0,-87.0,-81.0,-33.375,-47.4375,-43.5,107.25,-36.3125,-61.875,93628.75,LivingRoom ,EATING,3,0,0
4823.5515625,7220.7734375,782.51484375,121.53125,681.625,549.921875,-32.859375,-30.46875,-17.484375,-2.5126953125,-13.400390625,8.43359375,110.7578125,9.12109375,-51.421875,93652.02734375,4849.4,7242.174999999999,788.1500000000001,284.0,687.0,537.0,-23.5,-30.5,-20.5,0.09375,-9.46875,2.59375,109.0,18.875,-52.3125,93651.5,99.34767512667524,57.279571255676494,120.66598088455727,337.6575690378811,23.9022480180727,73.68019800041903,34.13784716596792,17.977913036358174,25.962116593526673,8.575500497965853,14.296840304841238,14.56495813012661,5.815368809019823,19.58067634901109,2.782634642844,10.1316842709233,4900.0,7250.0,900.0,-639.0,686.0,547.0,-23.0,-19.0,-34.0,0.8125,-36.875,0.375,109.375,23.9375,-52.6875,93660.25,4972.55,7296.9,962.8,393.0,724.0,684.0,34.0,35.0,95.0,5.75,8.5625,47.5625,127.125,24.5625,-46.6875,93664.0,4677.95,7103.9,606.65,-716.0,614.0,290.0,-158.0,-87.0,-81.0,-33.375,-47.4375,-18.875,105.625,-36.3125,-61.0,93628.75,LivingRoom ,EATING,1,0,0
4895.609375,7256.22890625,740.2867187500001,321.375,689.421875,541.125,-22.546875,-27.484375,-18.8125,0.4931640625,-8.30859375,2.54296875,107.6455078125,20.7529296875,-52.0,93657.015625,4911.475,7262.0,745.175,369.0,688.0,531.5,-17.5,-25.0,-18.0,0.25,-4.5,1.71875,107.71875,23.84375,-52.5625,93659.25,97.71735027944077,43.663110364714356,91.29793163488716,105.47556701954836,9.929600908714772,35.70714214271425,18.548032615048122,12.191582039220654,12.961328317191558,1.6493188374047496,11.348782990789092,3.614017212425302,1.7021175641884871,6.183359301618675,1.487714236939894,7.45806730038975,4900.0,7250.0,750.0,400.0,686.0,519.0,-7.0,-28.0,-23.0,0.25,-4.5,-0.1875,106.0,23.9375,-52.625,93660.25,5012.85,7334.65,910.25,426.0,714.0,646.0,23.0,-6.0,12.0,5.375,5.0,19.1875,110.375,26.3125,-47.5,93668.5,4677.95,7103.9,606.65,11.0,667.0,495.0,-81.0,-54.0,-61.0,-3.1875,-47.4375,-2.9375,104.75,0.3125,-53.8125,93643.25,LivingRoom ,EATING,0,0,0
4955.07421875,7294.509375,710.9453125,385.625,687.59375,520.5625,-18.0,-23.78125,-15.578125,-0.12890625,-2.3955078125,0.8349609375,106.9091796875,24.4296875,-52.9296875,93655.8828125,4975.15,7275.575000000001,744.8,390.5,687.5,519.0,-14.5,-21.5,-14.0,-0.1875,-1.875,0.65625,106.03125,24.53125,-52.8125,93656.75,43.949502942624605,47.78343662270633,52.93090338577386,36.2427880072668,8.678963346039938,14.342604974700986,12.834724723583234,9.589128682465832,12.180917534575423,0.9050176349899802,3.861376054679508,1.457157995226693,1.7070963032671802,1.7822113459817361,0.4996898839867885,6.638178529273519,5000.0,7250.0,750.0,400.0,686.0,510.0,-7.0,-19.0,-23.0,0.5,-4.5,-0.1875,105.8125,26.3125,-52.625,93660.25,5012.85,7384.3,776.45,442.0,714.0,554.0,5.0,-6.0,12.0,2.0625,5.0,4.75,110.375,26.375,-51.8125,93668.5,4858.45,7237.0,606.65,278.0,667.0,495.0,-70.0,-48.0,-61.0,-3.1875,-14.5,-2.9375,104.75,19.1875,-53.8125,93643.25,LivingRoom ,EATING,0,0,0
4974.552380952382,7317.885714285713,733.4650793650795,376.2857142857143,679.7142857142857,534.3015873015873,-9.777777777777779,-26.96825396825397,-11.238095238095237,-0.5426587301587301,6.119047619047619,-4.684523809523809,105.59920634920636,23.446428571428573,-52.31448412698413,93654.54365079365,4985.55,7334.65,749.2,400.0,686.0,519.0,-12.0,-23.0,-13.0,-0.1875,-0.375,-0.1875,105.8125,25.0,-53.0,93656.0,32.25416755839147,53.91480243549995,46.83742096674603,88.41205372707745,20.475342032220258,48.264270803043466,17.643827801761383,16.775527734565298,11.809938796534052,3.233008962283404,18.15889737058497,16.40562279358488,1.4264404028427768,6.036263242630477,2.29103948616416,8.410407780683313,5000.0,7350.0,750.0,382.0,686.0,510.0,-7.0,-15.0,-14.0,-0.8125,-3.25,-0.1875,105.125,26.3125,-53.375,93639.5,5012.85,7384.3,818.55,442.0,702.0,716.0,64.0,-6.0,32.0,15.0,69.75,2.25,109.0625,26.5,-45.0,93668.5,4900.4,7237.0,622.55,-32.0,609.0,497.0,-33.0,-85.0,-45.0,-11.0625,-9.375,-90.375,101.125,-3.8125,-53.8125,93637.75,LivingRoom ,EATING,0,0,0
4951.804761904762,7353.780952380952,782.3277777777778,112.76190476190476,638.6349206349206,529.1428571428571,-7.095238095238095,-6.365079365079365,-10.238095238095237,0.9494047619047619,9.9375,-19.558531746031747,114.86111111111111,6.745039682539683,-49.45039682539682,93652.48412698413,4985.55,7367.15,760.7,400.0,678.0,516.0,-10.0,-24.0,-13.0,-0.125,-0.3125,-1.0,105.8125,25.0,-53.0,93657.5,77.1398299457245,40.82724069722704,45.61665900581767,476.0250303220279,75.90917781803284,126.51939251366824,100.62124996590164,68.68823949375658,92.90382024259392,11.091188977123567,53.08418142479285,33.0898986134587,18.34002543122829,29.993695367406044,6.185413858268037,11.884174979835871,5000.0,7350.0,750.0,400.0,688.0,510.0,-7.0,-25.0,-17.0,0.25,-3.25,-0.1875,105.125,26.3125,-53.375,93630.0,5012.85,7427.05,897.55,442.0,702.0,747.0,554.0,276.0,406.0,39.9375,240.0,2.25,165.5,26.5,-30.0,93668.5,4727.55,7260.65,730.4,-1260.0,382.0,-308.0,-371.0,-126.0,-559.0,-47.375,-285.1875,-101.375,101.125,-65.0625,-53.8125,93630.0,LivingRoom ,EATING,4,0,1
4861.073809523809,7377.037301587301,820.5309523809523,-123.60317460317461,496.5238095238095,582.0952380952381,-1.8253968253968254,-10.428571428571429,-6.063492063492063,-1.6726190476190477,11.028769841269842,-10.783730158730158,127.90873015873017,-8.226190476190476,-39.692460317460316,93649.75,4940.35,7372.75,832.9,-148.0,612.0,514.0,-10.0,-25.0,-12.0,-0.375,1.75,-1.0,113.9375,-9.4375,-46.25,93650.25,146.36130004126628,23.12751637268621,62.07392992632009,518.4321444286187,259.1053999725418,210.2217503775412,122.53288428701427,77.86831611366642,116.35996332514101,27.82920328955838,76.83682079192164,47.67938303615378,25.57010451945179,32.36087317226156,18.50429161475041,11.256987077567253,5000.0,7350.0,750.0,414.0,470.0,510.0,-8.0,-67.0,-21.0,-0.375,-1.25,-1.0,105.125,26.3125,-53.5,93645.5,4999.05,7427.05,941.95,442.0,692.0,1195.0,554.0,276.0,406.0,99.0625,240.0,119.0625,169.125,26.5,6.3125,93666.75,4604.85,7303.75,743.65,-1260.0,-191.0,-308.0,-371.0,-152.0,-559.0,-83.5625,-285.1875,-101.375,101.125,-65.0625,-53.75,93630.0,LivingRoom ,EATING,13,2,2
4770.4111111111115,7350.648412698412,867.8198412698412,-374.36507936507934,445.14285714285717,605.8888888888889,19.142857142857142,3.857142857142857,-1.0634920634920635,-0.2371031746031746,7.286706349206349,-10.757936507936508,134.6547619047619,-24.932539682539684,-35.788690476190474,93651.13888888889,4707.8,7368.2,872.15,-495.0,493.0,580.0,-8.0,-23.0,-14.0,-0.375,13.4375,-5.0,132.625,-34.5625,-38.9375,93653.5,151.56760826295292,56.57519045358303,65.20696797547824,453.94174351211205,244.913800316057,246.66766928014778,172.16223192495642,96.37391179969835,146.45629899953454,29.122218298582826,92.57928138138593,48.609911017206585,22.05198237246029,26.981933503421825,16.874228733014775,12.209097098939223,4600.0,7400.0,950.0,416.0,406.0,366.0,-8.0,-67.0,-16.0,-22.625,65.25,-101.375,105.125,26.4375,-53.375,93645.5,4993.15,7427.05,955.7,424.0,857.0,1195.0,554.0,326.0,406.0,99.0625,240.0,119.0625,169.125,26.5,6.3125,93667.25,4604.85,7233.65,753.45,-1260.0,-191.0,-308.0,-371.0,-183.0,-559.0,-83.5625,-285.1875,-101.375,101.125,-65.0625,-53.375,93630.0,LivingRoom ,EATING,7,2,2
4703.262500000001,7331.80234375,887.4289062500001,-595.625,401.5,571.015625,25.78125,13.71875,-12.140625,1.1396484375,4.591796875,-7.6943359375,141.724609375,-39.775390625,-34.712890625,93653.265625,4680.799999999999,7310.9,881.65,-558.5,457.5,598.0,-2.0,7.5,2.0,3.15625,10.90625,-7.40625,135.71875,-41.25,-37.46875,93654.625,92.79921147721919,60.314152719151814,43.12858110706324,316.44992582643397,229.23274372054877,378.170386230632,216.42957494921623,111.38970183371161,255.61788615086795,33.63460899719637,129.24179025496085,47.74613692144181,14.554779523848763,12.239486290142139,16.706643717079576,11.86998641031035,4700.0,7400.0,850.0,-479.0,299.0,366.0,-8.0,-79.0,-746.0,-22.625,65.25,-101.375,129.75,-48.0,-48.0,93645.5,4940.35,7427.05,955.7,18.0,857.0,1195.0,554.0,326.0,558.0,99.0625,329.625,119.0625,169.125,-9.4375,6.3125,93667.25,4604.85,7233.65,800.75,-1455.0,-191.0,-353.0,-618.0,-221.0,-746.0,-83.5625,-316.75,-101.375,113.9375,-65.0625,-62.5,93630.0,LivingRoom ,EATING,6,1,7
4673.9921875,7314.38984375,879.2398437500001,-614.625,377.96875,561.03125,33.625,2.875,-16.796875,6.779296875,-2.716796875,-2.4208984375,146.3212890625,-41.7529296875,-35.2216796875,93655.2890625,4680.799999999999,7300.975,876.85,-631.5,422.0,570.5,33.0,-1.0,-18.5,7.8125,-1.90625,-5.125,136.46875,-42.875,-38.65625,93655.75,43.47759705793939,51.387671595808754,50.45377751025748,315.60631997212795,224.53351775456173,403.9902548231374,207.89805957392477,105.96712577979902,270.31851757225274,38.21647718025821,124.68756487882209,40.86999423590241,18.712097494860913,11.096502591038051,16.79059922788599,9.362859202213617,4700.0,7300.0,950.0,-920.0,299.0,614.0,-8.0,-79.0,-119.0,-22.625,-316.75,-84.625,129.75,-50.125,-38.9375,93645.5,4744.55,7417.7,955.7,18.0,857.0,1288.0,506.0,326.0,558.0,99.0625,329.625,119.0625,194.5,-13.9375,6.3125,93667.25,4604.85,7233.65,800.6,-1455.0,-191.0,-353.0,-618.0,-221.0,-746.0,-83.5625,-316.75,-84.625,128.0,-60.625,-62.5,93642.25,LivingRoom ,EATING,6,1,8
4701.1578125,7307.825000000001,852.284375,-672.859375,405.515625,499.125,22.625,2.25,-31.90625,0.6884765625,7.4619140625,-2.8896484375,154.5400390625,-45.6484375,-38.4140625,93652.453125,4712.275,7300.975,828.925,-683.5,413.0,428.0,-12.5,4.5,-32.0,7.875,-2.28125,-9.21875,139.28125,-45.5,-37.46875,93655.75,48.37021927383842,40.030669789669055,60.360117624166165,362.69519614621265,172.15515263093624,380.00528400670413,244.41614915601212,116.1623111843189,276.5197957120519,44.251644289728716,137.02933316254828,47.66126777797467,27.41367078903156,11.235614148662238,9.99011478178177,15.096440963416006,4700.0,7300.0,800.0,-920.0,329.0,397.0,-79.0,36.0,-120.0,-145.625,-316.75,-84.625,132.625,-42.875,-38.9375,93612.5,4767.2,7378.7,955.7,18.0,857.0,1288.0,506.0,326.0,558.0,87.125,428.75,169.625,206.75,-22.1875,-10.8125,93667.25,4607.25,7233.65,760.25,-1455.0,-81.0,-353.0,-618.0,-312.0,-746.0,-145.625,-316.75,-84.625,128.0,-72.4375,-62.5,93612.5,LivingRoom ,EATING,10,0,9
4734.59375,7334.778125,798.64296875,-742.46875,343.3125,462.609375,-0.765625,-7.0,-24.546875,-3.998046875,4.97265625,0.7939453125,158.19140625,-50.0888671875,-36.7109375,93650.67578125,4738.9,7342.950000000001,805.7,-758.0,348.5,397.0,-16.0,2.5,-44.5,7.875,-2.1875,-7.4375,147.21875,-50.75,-34.84375,93654.5,28.305210833298187,37.21749127421176,52.45154216201476,351.9104309179949,177.4135045234764,383.2976636484148,236.91052106244535,118.2166426658049,295.0540402311855,48.21453993562644,139.20942184112496,48.31910155785259,25.073980010885975,12.095646459768073,13.612686932994318,15.016438062282713,4750.0,7350.0,800.0,-920.0,198.0,397.0,-79.0,-312.0,-120.0,-145.625,-2.1875,-20.4375,136.375,-42.875,-35.9375,93642.25,4790.65,7396.9,903.05,8.0,797.0,1288.0,506.0,275.0,641.0,87.125,428.75,169.625,206.75,-22.1875,-10.8125,93667.25,4676.2,7264.35,687.5,-1499.0,-81.0,-353.0,-618.0,-312.0,-746.0,-145.625,-316.75,-84.625,128.0,-83.125,-89.75,93612.5,LivingRoom ,EATING,7,0,8
4760.276153846153,7329.037692307693,760.2623076923078,-765.6461538461539,295.67692307692306,506.0153846153846,-11.4,-0.6615384615384615,-13.461538461538462,-5.015384615384615,-3.921153846153846,0.6778846153846154,160.28846153846155,-50.69615384615385,-31.185576923076923,93651.09615384616,4757.25,7342.1,748.1,-773.0,314.0,465.0,-21.0,8.0,-45.0,6.3125,-2.375,-5.25,147.4375,-49.5,-27.875,93653.25,30.663579154078906,44.548643559920464,48.74177256757131,285.16039514900814,160.00626039435025,282.96800240418594,200.929698526624,112.49142702377881,226.0504006938412,47.72184014886171,106.78599882720036,46.84411251992557,22.86472428735538,10.93122519183973,12.689650031568164,14.74680131548742,4750.0,7350.0,800.0,-920.0,198.0,397.0,-79.0,-176.0,-119.0,-145.625,-257.1875,-84.625,142.9375,-60.125,-27.875,93653.25,4814.25,7396.9,840.55,8.0,797.0,1288.0,506.0,275.0,641.0,87.125,428.75,169.625,206.75,-22.1875,-10.8125,93667.25,4706.75,7241.1,677.8,-1499.0,-81.0,-278.0,-562.0,-312.0,-668.0,-145.625,-257.1875,-84.625,136.375,-83.125,-89.75,93612.5,LivingRoom ,EATING,5,0,4
4771.22734375,7311.862499999999,756.3265624999999,-668.109375,207.03125,603.625,-18.046875,-4.75,-14.671875,-15.615234375,-5.720703125,10.7333984375,155.7998046875,-43.5,-21.7734375,93651.828125,4767.2,7317.9,741.2,-712.0,222.5,598.0,-23.5,6.0,-46.5,0.53125,-6.875,0.65625,145.84375,-47.40625,-23.96875,93653.25,23.366046676251948,56.83606403159151,48.842611639894486,345.38127618974994,158.35723817038607,285.5267757716248,201.35630818830143,113.74239901344325,208.51013866617447,43.80301099429603,105.25789142122414,42.32393538204651,21.74576957720509,17.622009483993825,14.323910679793364,14.85591345836868,4750.0,7250.0,700.0,-550.0,198.0,598.0,-21.0,-68.0,-289.0,-145.625,-257.1875,-43.9375,142.9375,-60.125,-27.875,93653.25,4814.25,7396.9,867.65,262.0,507.0,1352.0,502.0,182.0,641.0,49.3125,428.75,169.625,206.75,-9.4375,0.6875,93667.25,4722.55,7229.1,677.8,-1499.0,-157.0,-137.0,-562.0,-312.0,-326.0,-145.625,-257.1875,-43.9375,136.4375,-83.125,-89.75,93612.5,LivingRoom ,EATING,5,0,3
4760.53046875,7278.1703125,775.8609375,-547.4375,95.953125,712.171875,-7.90625,6.53125,-2.828125,-9.1962890625,-17.3623046875,3.0322265625,142.759765625,-35.2783203125,-11.6748046875,93655.078125,4765.2,7255.15,741.2,-550.0,115.5,702.0,-26.5,13.0,-39.5,-3.625,-11.5625,3.90625,143.03125,-42.3125,-14.46875,93653.25,35.73311191427881,59.87090458456262,70.08658843510807,329.31544558130383,228.71313075675292,298.95524720491056,165.2437083066119,103.03782149642994,198.0765087621768,33.766295057984884,85.71572587433201,21.371988765510167,4.3670451880367755,19.69055919066316,19.84277292522497,10.270920867974326,4750.0,7250.0,700.0,-550.0,-176.0,598.0,-21.0,-68.0,-169.0,-81.5625,-257.1875,-41.3125,138.4375,-51.125,-20.3125,93666.75,4814.25,7396.9,897.35,262.0,502.0,1352.0,502.0,182.0,641.0,49.3125,199.0,65.1875,156.25,-4.25,17.0,93668.75,4691.95,7185.65,677.8,-1499.0,-393.0,-137.0,-469.0,-263.0,-289.0,-81.5625,-257.1875,-41.3125,134.625,-83.125,-89.75,93638.0,LivingRoom ,EATING,4,0,2
4745.4234375,7232.3625,806.3257812500001,-463.578125,-2.609375,762.859375,-4.921875,10.0,-20.25,-2.146484375,-6.7314453125,2.3349609375,140.9423828125,-29.7548828125,-0.712890625,93654.43359375,4726.975,7238.475,838.4,-423.0,-34.0,810.0,-17.5,13.0,-43.0,-0.0625,-18.375,3.90625,141.0,-23.3125,-0.46875,93653.5,43.33338092373762,35.65082647809762,68.19940242731936,341.2677952654154,235.06193828722934,285.6086159379928,190.19558059788943,97.32322191445124,182.01238401962635,32.60567225861568,114.68002180307998,19.912100265979433,3.445009918595839,19.70989153927584,15.81368893653527,10.394427897888598,4700.0,7250.0,850.0,-173.0,-176.0,629.0,211.0,-68.0,-169.0,-68.5,-400.125,0.6875,138.4375,-49.5,17.0,93666.75,4814.25,7312.65,897.35,262.0,502.0,1352.0,502.0,182.0,532.0,60.375,264.875,65.1875,149.0625,-1.6875,20.25,93668.75,4687.95,7180.0,677.8,-1592.0,-393.0,-143.0,-614.0,-207.0,-301.0,-68.5,-400.125,-41.3125,134.625,-85.9375,-29.0625,93638.0,LivingRoom ,EATING,5,1,2
4712.621428571429,7213.750000000001,830.3960317460318,-475.2063492063492,-63.22222222222222,707.3650793650794,3.873015873015873,12.841269841269842,-20.333333333333332,-2.2728174603174605,13.885912698412698,3.7123015873015874,141.25198412698413,-33.56646825396825,-3.251984126984127,93651.04365079365,4707.15,7206.7,840.85,-398.0,-39.0,792.0,-11.0,21.0,-18.0,1.1875,12.4375,5.0625,141.0,-22.4375,3.4375,93653.5,36.07890626056344,25.346177417461185,43.385384135439224,378.5230703639437,168.05389347203808,355.1745278204697,196.38831612834193,84.15523412491679,163.1843406465769,29.992491713290296,119.38289881594389,18.75581072489005,3.7904566379181195,26.693351498845388,40.67651350644579,12.300794926002625,4700.0,7200.0,850.0,-398.0,-176.0,954.0,211.0,-27.0,-169.0,-68.5,-400.125,-33.1875,146.375,-88.9375,17.0,93666.75,4795.7,7260.1,897.35,262.0,285.0,1352.0,502.0,181.0,532.0,60.375,264.875,65.1875,149.0625,-1.6875,20.25,93668.75,4641.7,7179.1,724.3,-1592.0,-393.0,-143.0,-614.0,-207.0,-301.0,-68.5,-400.125,-33.1875,134.625,-88.9375,-179.75,93627.75,LivingRoom ,EATING,8,0,4
4689.412307692309,7210.113846153847,815.2930769230769,-621.8923076923077,19.323076923076922,455.4,-0.2,14.23076923076923,-10.0,-2.6721153846153847,22.651923076923076,11.440384615384616,134.04134615384615,-45.675,-33.70961538461538,93649.85,4696.95,7204.4,837.2,-747.0,-1.0,567.0,-11.0,21.0,-3.0,-1.25,20.4375,8.9375,139.0625,-47.8125,3.375,93649.75,24.934316887651992,21.959368565340423,54.765805992513386,386.90814167726404,264.13343619349786,465.74368621592714,177.2791055087993,68.65237824330296,137.1268801147317,27.046511747382915,112.804668275389,19.71535551324962,16.197173286594225,28.514788515128426,67.00351209928344,11.656945354594402,4700.0,7200.0,850.0,-1011.0,-176.0,-149.0,-34.0,-1.0,-58.0,3.0,12.0625,6.375,141.0,-88.9375,17.0,93644.25,4728.05,7246.05,897.35,170.0,582.0,1225.0,460.0,144.0,532.0,60.375,264.875,55.625,147.125,-1.6875,20.25,93668.75,4640.85,7179.1,713.75,-1592.0,-393.0,-198.0,-614.0,-207.0,-301.0,-51.75,-400.125,-26.625,86.9375,-88.9375,-179.75,93627.75,LivingRoom ,EATING,7,1,9
4682.413281249999,7211.50625,783.24375,-759.59375,172.84375,170.421875,-3.671875,13.03125,-7.34375,6.234375,22.0478515625,9.212890625,128.791015625,-55.931640625,-66.07421875,93651.8203125,4688.575000000001,7207.1,798.225,-841.5,129.0,-38.0,-6.5,20.5,3.0,6.625,17.21875,5.8125,138.09375,-59.09375,-104.8125,93655.5,32.971382784367634,23.03807493748979,70.66197957277207,321.1702173797347,270.9273444893732,447.1379817818926,160.3191316042266,60.52861549425027,122.97350582511923,28.590362959687425,101.34082966757151,20.943952508311007,19.305713988426497,22.7882215304221,69.2836645608126,12.147201385014379,4700.0,7200.0,850.0,-1023.0,-373.0,-175.0,-17.0,-14.0,-31.0,3.0,12.0625,5.5625,141.0,-88.9375,-179.75,93660.75,4754.2,7255.85,864.45,170.0,582.0,1225.0,460.0,144.0,532.0,60.375,264.875,55.625,147.125,-1.6875,20.25,93675.75,4592.95,7179.1,552.75,-1592.0,-373.0,-425.0,-614.0,-207.0,-301.0,-48.5625,-400.125,-33.0,86.9375,-88.9375,-179.75,93627.75,LivingRoom ,EATING,4,2,9
4641.3388888888885,7211.113492063492,684.0619047619047,-848.984126984127,305.8412698412698,-72.61904761904762,-4.603174603174603,14.34920634920635,0.6349206349206349,1.9990079365079365,18.38095238095238,6.398809523809524,121.29067460317461,-62.2093253968254,-101.85416666666667,93653.55555555556,4660.25,7208.35,740.05,-869.0,368.0,-154.0,-11.0,15.0,6.0,-0.125,11.875,2.6875,128.25,-60.125,-121.6875,93657.25,70.02957350201807,24.96229124866144,153.16228498385186,160.02313260835155,180.5141587109878,325.58024770531233,79.78227220066672,33.084037048469085,55.18599097226011,23.996081596036582,42.345740734488686,20.331719903770846,22.082584065122802,13.731370988912618,55.14476343657489,11.613521426695499,4650.0,7200.0,800.0,-871.0,374.0,-325.0,-11.0,14.0,-31.0,-2.125,12.0625,1.25,131.4375,-60.125,-179.75,93660.75,4754.2,7255.85,856.9,-156.0,582.0,840.0,326.0,80.0,161.0,56.1875,209.0,55.625,147.125,-29.6875,7.6875,93675.75,4500.5,7157.45,393.2,-1119.0,-76.0,-425.0,-175.0,-102.0,-196.0,-48.5625,-76.375,-33.0,74.6875,-88.9375,-179.75,93627.75,LivingRoom ,EATING,0,0,2
4589.884126984128,7226.12619047619,613.5547619047618,-864.4126984126984,391.8888888888889,-248.57142857142858,-11.365079365079366,9.222222222222221,4.285714285714286,2.310515873015873,2.1865079365079363,7.23015873015873,97.21527777777777,-61.336309523809526,-126.00099206349206,93660.16666666667,4592.95,7227.5,552.75,-862.0,390.0,-304.0,-10.0,11.0,4.0,-0.0625,0.625,1.375,99.5,-60.0,-128.875,93658.0,96.38817263870492,37.79198035035797,148.19396964198256,67.35429553096147,97.18540828863864,103.9448852541909,34.61600486969519,27.09984194957152,31.805572940069524,21.05405679415916,17.16194761897813,19.105615655381865,32.85849268537222,7.726220579753377,14.731170030642854,18.484954649311337,4500.0,7250.0,550.0,-871.0,391.0,-308.0,-7.0,14.0,10.0,-0.875,-0.6875,-2.5625,131.4375,-59.375,-129.625,93660.75,4754.2,7328.15,844.5,-699.0,582.0,25.0,72.0,77.0,119.0,56.1875,28.125,55.625,144.625,-49.5625,-103.5625,93709.5,4446.15,7157.45,393.2,-1023.0,53.0,-425.0,-129.0,-102.0,-98.0,-41.25,-76.375,-33.0,34.0,-85.125,-177.6875,93640.75,LivingRoom ,EATING,0,0,0
4556.9201612903225,7246.866129032259,555.667741935484,-852.9032258064516,401.03225806451616,-249.74193548387098,-10.629032258064516,8.064516129032258,-4.403225806451613,3.592741935483871,-18.508064516129032,0.5131048387096774,74.0211693548387,-59.39415322580645,-121.38810483870968,93663.58870967742,4526.0,7240.825,536.4000000000001,-863.0,390.0,-307.5,-8.5,10.0,1.5,-0.34375,-1.0,0.21875,70.0,-60.0625,-128.84375,93658.0,86.87574953547515,52.4238681203933,121.08909302887383,73.73784082648105,42.08226437759054,178.57174114953378,45.07634102674704,21.163586859944704,33.477890760193574,17.914677611274993,44.38390796624859,11.531658230016644,40.86392845172542,4.297477527944287,20.83429923781052,20.52582823023914,4500.0,7200.0,550.0,-871.0,391.0,-308.0,-7.0,7.0,1.0,-0.875,-0.6875,0.75,24.75,-59.375,-129.625,93709.5,4754.2,7328.15,844.5,-501.0,558.0,576.0,132.0,43.0,66.0,56.1875,25.625,36.9375,132.1875,-40.25,-38.25,93709.5,4446.15,7157.45,393.2,-1089.0,349.0,-425.0,-189.0,-102.0,-140.0,-26.875,-160.75,-33.0,21.875,-66.5625,-134.5625,93636.25,LivingRoom ,EATING,0,0,0
4583.266666666666,7251.111904761907,541.5579365079366,-756.3650793650794,405.25396825396825,1.4444444444444444,-12.301587301587302,9.444444444444445,-7.190476190476191,-6.431547619047619,-19.171626984126984,4.084325396825397,51.97222222222222,-51.54960317460318,-98.44246031746032,93657.87698412698,4529.0,7250.75,536.95,-854.0,391.0,-302.0,-9.0,10.0,1.0,-1.5,-0.6875,0.75,32.875,-59.8125,-128.75,93657.25,124.98833139085812,50.38331674265583,93.23740908093133,218.88193176048878,42.996987236530074,463.21658620430145,73.79497205545674,25.02693889094102,66.28235233012438,13.131525424162943,52.813261075177934,10.644882717334006,35.561599600572436,15.308463748527798,44.404712765933,22.801955606208118,4500.0,7250.0,550.0,-871.0,391.0,-308.0,-5.0,7.0,1.0,-1.5,-0.6875,0.75,24.5625,-59.375,-129.625,93709.5,4834.7,7328.15,772.3,-51.0,576.0,1165.0,186.0,76.0,331.0,16.4375,87.75,36.9375,132.1875,-11.3125,-21.9375,93709.5,4446.15,7157.45,393.2,-1089.0,336.0,-373.0,-384.0,-120.0,-217.0,-52.6875,-160.75,-14.25,21.875,-66.5625,-134.5625,93631.5,LivingRoom ,EATING,1,0,4
4641.465625000001,7262.79765625,630.60625,-642.140625,410.78125,278.8125,-19.40625,-0.328125,-6.8125,-5.2587890625,-18.7412109375,6.8828125,30.798828125,-42.1298828125,-72.857421875,93654.73828125,4660.125,7250.775,566.775,-712.0,394.0,567.5,-7.5,7.5,1.0,-0.875,-1.40625,1.625,25.15625,-38.53125,-37.90625,93647.0,141.64663608391447,36.64066548843667,119.82818106017663,254.04573186528495,65.66496704351108,526.4077083372026,80.48596816482095,54.66871502768085,94.66899309683322,23.79969703101893,53.403718979038345,15.946212215688645,13.115167654774652,18.642882862756547,47.573914489715385,23.986662534389616,4500.0,7250.0,550.0,-852.0,391.0,-324.0,-5.0,7.0,1.0,-0.875,-3.75,0.75,24.5625,-59.375,-129.625,93709.5,4834.7,7328.15,813.45,-51.0,657.0,1165.0,186.0,187.0,331.0,76.1875,87.75,54.375,71.4375,-11.3125,-21.9375,93709.5,4446.15,7208.6,461.85,-1089.0,173.0,-324.0,-384.0,-291.0,-244.0,-52.6875,-160.75,-28.4375,16.6875,-66.5625,-130.3125,93631.5,LivingRoom ,EATING,1,0,8
4689.50625,7253.0484375,684.46015625,-524.125,413.84375,558.703125,-23.125,-4.890625,-7.90625,-5.0986328125,-18.9951171875,6.8134765625,23.37109375,-32.6591796875,-47.298828125,93652.83984375,4695.424999999999,7243.200000000001,711.075,-485.5,399.0,668.5,-16.0,3.0,-8.5,-5.65625,-3.96875,2.0625,23.15625,-24.25,-31.09375,93654.5,103.48433111207844,35.13762281661041,104.84074929469747,241.69871708652045,79.82246545969056,433.47242015807467,88.53490030168086,62.658337133230624,118.65499123275197,28.378366707931917,55.24812391849905,16.223511271595946,3.4289825031551917,16.8897199529837,36.25275965951155,16.94771178937833,4800.0,7250.0,800.0,-874.0,390.0,968.0,-56.0,7.0,-95.0,-26.875,-11.75,-1.6875,20.25,-60.625,-35.25,93631.5,4834.7,7327.85,813.45,-51.0,657.0,1165.0,186.0,187.0,331.0,76.1875,87.75,54.375,32.875,-11.3125,-21.9375,93709.5,4473.8,7208.85,512.45,-1089.0,173.0,-311.0,-384.0,-291.0,-244.0,-52.6875,-160.75,-28.4375,16.6875,-66.5625,-128.75,93631.5,LivingRoom ,EATING,1,0,4
4706.980468750001,7236.51796875,730.890625,-429.625,428.703125,758.46875,-21.296875,-7.328125,-6.203125,-2.3544921875,-2.7802734375,2.0048828125,22.23828125,-24.787109375,-29.91015625,93649.53125,4695.424999999999,7240.049999999999,735.55,-419.5,430.0,730.0,-15.0,-5.5,-5.5,-3.96875,0.6875,0.875,21.46875,-23.84375,-30.25,93647.0,76.79400740157176,13.519510789929049,61.17019963522024,156.0378973096773,94.06864762645331,171.92236793168624,105.10639804842656,70.53470488528302,139.38870848663254,32.140143840179036,41.432861869317954,17.67848782087638,2.891234250466646,6.107926060266979,4.561268248059301,12.160264134036062,4600.0,7250.0,700.0,-404.0,453.0,667.0,-97.0,21.0,163.0,-54.5,-11.75,-7.6875,20.25,-24.9375,-35.25,93631.5,4834.7,7266.15,813.45,-51.0,657.0,1165.0,298.0,187.0,351.0,76.1875,87.75,54.375,29.5625,-11.3125,-21.9375,93670.25,4605.0,7208.85,572.5,-964.0,173.0,439.0,-384.0,-291.0,-244.0,-54.5,-157.0,-42.25,16.6875,-36.8125,-37.5625,93631.5,LivingRoom ,EATING,1,0,0
4684.483333333334,7213.628571428572,742.3182539682539,-467.3809523809524,421.8253968253968,735.6666666666666,-29.22222222222222,-13.73015873015873,-11.0,3.566468253968254,-0.6805555555555556,-0.35714285714285715,21.39484126984127,-26.759920634920636,-30.459325396825395,93655.03571428571,4683.05,7224.0,737.05,-452.0,405.0,718.0,-35.0,-15.0,-17.0,6.6875,-7.375,-0.75,20.8125,-24.8125,-30.5,93653.75,59.821061805052175,38.15512026930306,41.865453944737965,143.65330448479395,96.78035319192058,176.63558257683547,92.064571386932,71.34541293417954,133.74904280634274,33.53136672674545,42.42124479513346,20.730489724197763,3.9866180102791677,6.652675440587278,4.783534515497667,16.8608427557219,4700.0,7250.0,700.0,-519.0,335.0,515.0,-107.0,21.0,163.0,8.4375,-11.75,-3.0,20.25,-42.5,-37.875,93635.25,4817.25,7255.05,813.45,-200.0,657.0,1123.0,298.0,187.0,351.0,76.1875,133.9375,54.375,41.9375,-17.5625,-22.125,93693.75,4605.0,7129.9,679.6,-823.0,173.0,439.0,-307.0,-291.0,-244.0,-54.5,-107.25,-59.875,16.1875,-44.125,-41.125,93634.5,LivingRoom ,EATING,0,0,0
4667.007258064516,7204.715322580644,726.0887096774195,-492.7903225806452,413.88709677419354,735.3225806451613,-27.016129032258064,-10.193548387096774,-7.435483870967742,1.811491935483871,-1.6370967741935485,-3.9455645161290325,31.026209677419356,-28.339717741935484,-30.013104838709676,93665.08467741935,4682.950000000001,7220.35,713.05,-491.0,404.5,717.5,-26.5,-14.5,-16.5,6.75,-11.375,-1.875,21.53125,-27.25,-30.25,93662.5,36.54506296047073,39.23451828816146,33.78929336119294,162.36864926908768,123.22618212833224,222.37722891692863,118.66311205180463,88.49022150473257,192.85538801772415,38.68385829932254,48.22976917921799,17.71555435978389,17.602464768626138,6.109482067085615,4.8308230742694604,22.063430519474494,4700.0,7250.0,700.0,-567.0,273.0,515.0,-124.0,21.0,-205.0,8.4375,-11.75,-3.0,20.5625,-29.6875,-37.875,93634.5,4735.9,7251.55,812.05,-182.0,726.0,1278.0,298.0,277.0,491.0,85.0,133.9375,35.0625,71.3125,-18.5,-20.6875,93707.0,4605.0,7129.9,679.6,-890.0,-1.0,296.0,-358.0,-327.0,-490.0,-94.375,-107.25,-59.875,16.1875,-44.125,-41.125,93634.5,LivingRoom ,EATING,0,0,1
4699.779838709678,7203.9725806451615,741.8274193548389,-569.4032258064516,382.7258064516129,677.741935483871,-35.854838709677416,-13.951612903225806,-14.451612903225806,-0.30443548387096775,10.17641129032258,-7.836693548387097,47.46471774193548,-33.53931451612903,-29.087701612903224,93660.4879032258,4695.025,7216.700000000001,735.7,-546.0,402.5,643.0,-27.5,-13.5,-44.5,4.75,-7.9375,-3.40625,44.84375,-31.21875,-28.375,93653.75,65.00198323561919,40.12463234847081,43.87039282935117,210.90480019080158,146.49357053589543,226.3539181135878,153.74770122489886,95.71464204746277,210.47944313153826,39.8854926130739,61.06053366151402,20.81697280876692,27.63959683382226,9.8846396317447,5.618991094653971,25.99891341595171,4700.0,7250.0,700.0,-567.0,273.0,382.0,-124.0,21.0,-138.0,8.4375,-107.25,-1.8125,18.1875,-29.6875,-27.0,93631.0,4812.6,7251.55,813.35,-182.0,726.0,1278.0,298.0,277.0,522.0,85.0,144.0625,35.0625,91.3125,-22.0,-18.75,93707.0,4605.0,7129.9,679.6,-1085.0,-1.0,296.0,-527.0,-327.0,-490.0,-94.375,-107.25,-59.875,16.1875,-71.0625,-41.125,93631.0,LivingRoom ,EATING,2,0,1
4734.503225806452,7217.613709677419,741.066935483871,-693.8548387096774,304.7741935483871,543.9516129032259,-38.75806451612903,-9.85483870967742,-12.0,0.42943548387096775,12.783266129032258,-3.653225806451613,66.87399193548387,-45.729838709677416,-30.976814516129032,93662.70564516129,4730.675,7216.700000000001,734.35,-668.0,317.5,536.0,-28.0,-12.0,-18.0,4.3125,4.4375,-0.03125,75.0625,-35.28125,-27.875,93655.5,45.04641674489474,58.64514512445537,44.57696691094377,251.31691486550312,158.1983004773728,307.1149423005028,150.4447707042623,92.78740848264047,202.11537039725522,37.16070288100756,65.50516451074414,21.039700949940556,29.044664437144515,19.867049053352464,10.007311836784057,26.88726937595144,4700.0,7250.0,700.0,-567.0,176.0,382.0,-124.0,37.0,-138.0,-4.0625,3.1875,-1.8125,18.1875,-29.6875,-27.0,93645.0,4812.6,7344.4,813.35,-182.0,726.0,1278.0,222.0,277.0,522.0,85.0,144.0625,35.0625,101.4375,-22.4375,-18.75,93707.0,4656.7,7129.9,679.6,-1190.0,-1.0,-150.0,-527.0,-327.0,-490.0,-94.375,-202.0625,-59.875,16.1875,-80.25,-65.3125,93631.0,LivingRoom ,EATING,1,0,5
4745.46507936508,7265.490476190476,733.6166666666667,-770.1428571428571,253.74603174603175,445.25396825396825,-29.53968253968254,-3.492063492063492,-5.936507936507937,-2.5277777777777777,14.80952380952381,-2.064484126984127,87.28869047619048,-54.245039682539684,-34.163690476190474,93660.33730158731,4744.85,7248.45,727.25,-868.0,199.0,412.0,-22.0,13.0,-9.0,1.5,17.0,1.375,91.625,-64.625,-27.625,93655.5,37.115980641028656,64.49312845188642,48.20134016340611,261.5626648621121,143.1475629634891,333.2069476221593,149.48382428369376,92.02732290902715,197.1601504767023,33.90457021217643,63.15607410329233,20.93477343902466,18.073353240343376,21.068931192425065,16.388589490721635,26.009929816374726,4750.0,7250.0,700.0,-890.0,176.0,382.0,-71.0,37.0,-47.0,-5.625,3.1875,-29.125,69.5,-75.5625,-27.0,93645.0,4812.6,7367.2,813.35,-182.0,726.0,1278.0,222.0,277.0,522.0,85.0,144.0625,48.8125,112.0625,-22.4375,-18.75,93707.0,4689.2,7147.2,671.15,-1190.0,-1.0,-150.0,-527.0,-327.0,-490.0,-94.375,-202.0625,-57.8125,47.75,-80.25,-81.125,93625.75,LivingRoom ,EATING,3,0,5
4751.0703125,7294.59609375,735.546875,-842.3125,297.859375,226.125,-22.734375,-4.171875,-11.359375,-4.3525390625,20.5888671875,3.5888671875,88.802734375,-60.6796875,-52.01171875,93654.47265625,4745.2,7308.425,731.75,-876.0,231.0,179.0,-15.5,5.0,-11.5,-2.28125,22.09375,4.6875,92.1875,-66.03125,-38.75,93655.5,31.49796254276206,55.59914518062726,44.006803113133486,195.95941230224506,172.02536424161502,282.96645715175475,126.44909160550401,60.22881098460311,124.53397154770438,22.550608227869656,57.43474105232785,24.007890786692023,16.659452377423005,15.60525935521902,30.99250036291102,20.546072752006744,4750.0,7350.0,750.0,-868.0,176.0,-229.0,-46.0,37.0,-47.0,-20.4375,3.1875,-29.125,55.6875,-75.5625,-27.0,93672.75,4812.6,7367.2,813.35,-247.0,623.0,1158.0,192.0,87.0,522.0,50.5,144.0625,48.8125,112.0625,-28.25,-18.75,93684.75,4687.4,7183.45,671.15,-1190.0,26.0,-229.0,-527.0,-237.0,-305.0,-61.625,-202.0625,-57.8125,54.3125,-80.25,-106.6875,93625.75,LivingRoom ,EATING,1,0,1
4723.766406250001,7289.559375,708.43828125,-896.0625,327.578125,71.203125,-13.40625,0.78125,-5.578125,0.8857421875,3.4453125,3.55859375,88.921875,-65.408203125,-66.19140625,93657.01171875,4729.5,7308.425,711.225,-894.5,287.0,66.0,-17.0,5.0,-8.0,0.96875,16.71875,5.59375,97.78125,-68.71875,-65.84375,93655.5,31.61170173970336,65.58710606622962,40.179030642217015,118.59171991225202,181.24041778173657,200.57149931953373,88.58261658089278,59.69804143180621,67.1219701660213,18.05211314566102,56.30092987563448,25.063913526915986,21.090493208311685,12.623968451247228,30.899998063630058,17.53677709749605,4750.0,7350.0,750.0,-1012.0,176.0,-121.0,-46.0,-42.0,-32.0,-20.4375,11.3125,-61.5625,55.6875,-75.5625,-115.125,93672.75,4797.55,7367.2,773.2,-681.0,623.0,508.0,192.0,130.0,141.0,46.5,106.3125,48.8125,112.0625,0.0,0.0,93684.75,4650.9,7143.2,614.4,-1190.0,26.0,-371.0,-324.0,-279.0,-305.0,-31.625,-202.0625,-61.5625,0.0,-80.25,-115.125,93625.75,LivingRoom ,EATING,0,0,0
4722.45234375,7264.020312500001,686.4046875000001,-881.625,372.484375,60.484375,-12.265625,-0.375,-8.546875,1.8837890625,-4.8896484375,-0.22265625,90.9638671875,-62.701171875,-73.31640625,93655.4375,4728.85,7261.075000000001,687.325,-878.0,348.5,35.5,-19.5,8.0,-14.5,0.71875,14.53125,-2.8125,100.65625,-65.875,-81.34375,93655.5,29.27181242007663,78.87226146416891,52.48326242547645,110.28944602618105,155.9568511945654,216.40548302969927,75.36708940036453,60.17421796697077,54.03347865422131,18.503377624914755,58.90979591995538,26.39218360671875,22.210957041164654,11.401376126291277,29.863115444683597,14.91164453898841,4750.0,7350.0,700.0,-983.0,190.0,-121.0,-46.0,-46.0,-47.0,-20.4375,-179.3125,-61.5625,55.6875,-68.6875,-115.125,93672.75,4765.45,7367.2,773.2,-681.0,623.0,517.0,189.0,130.0,108.0,46.5,106.3125,48.8125,116.0,0.0,0.0,93672.75,4650.9,7141.85,593.55,-1133.0,47.0,-371.0,-251.0,-279.0,-136.0,-31.625,-179.3125,-61.5625,0.0,-76.25,-115.125,93625.75,LivingRoom ,EATING,0,0,0
4711.944615384616,7260.453076923077,706.0200000000001,-816.0923076923077,349.0769230769231,159.52307692307693,-12.646153846153846,-0.8307692307692308,-17.50769230769231,-1.1288461538461538,-17.704807692307693,-4.116346153846154,94.48557692307692,-55.752884615384616,-64.3423076923077,93659.69230769231,4711.7,7261.3,729.2,-840.0,377.0,43.0,-24.0,-4.0,-14.0,2.125,1.1875,-7.0625,101.0,-60.125,-76.375,93664.0,32.110685189908125,74.6379280452279,61.533529858728244,220.0792984270757,197.27125263297896,363.4354356214933,154.23241702553474,87.04516952974208,123.93258286727443,29.665711323602817,61.81718268933027,33.60061499064264,29.319074441851043,15.974988197073404,38.42315234585664,11.625904638084995,4700.0,7350.0,750.0,-998.0,600.0,-121.0,38.0,-42.0,-49.0,-114.25,-179.3125,-100.5625,0.0,-66.5625,0.0,93660.5,4765.45,7362.3,787.1,449.0,623.0,1361.0,968.0,295.0,543.0,62.25,72.5,69.125,137.875,0.0,4.5625,93674.5,4650.9,7141.85,593.55,-1133.0,-138.0,-371.0,-251.0,-279.0,-456.0,-114.25,-179.3125,-100.5625,0.0,-72.9375,-115.125,93635.75,LivingRoom ,EATING,1,0,4
4713.461538461538,7256.960769230768,711.3507692307693,-768.1846153846154,226.44615384615383,323.9846153846154,-3.0615384615384613,1.1384615384615384,-29.753846153846155,0.2692307692307692,-18.996153846153845,-5.315384615384615,110.49807692307692,-52.9375,-43.12596153846154,93658.20384615385,4711.15,7273.1,739.05,-834.0,283.0,235.0,-22.0,8.0,-18.0,6.0625,-10.125,-8.3125,115.875,-60.125,-32.6875,93659.0,33.37128463546396,69.81894022012611,65.36232578643096,294.6654295715997,215.3469606508029,421.49278954048003,185.6281461789837,101.98006498255506,152.5147565369937,31.548333615125,115.31392269030641,37.451838263333414,27.40884877847258,19.521391261815204,39.39754050434451,8.693892916206268,4700.0,7300.0,750.0,-998.0,299.0,337.0,38.0,16.0,-49.0,-114.25,-333.75,-100.5625,0.0,-66.5625,0.0,93650.0,4765.45,7360.5,794.45,449.0,611.0,1361.0,968.0,295.0,543.0,62.25,506.625,112.375,140.0,0.0,7.5625,93674.5,4650.9,7141.85,593.55,-1279.0,-280.0,-371.0,-449.0,-279.0,-457.0,-114.25,-333.75,-100.5625,0.0,-79.375,-115.125,93635.75,LivingRoom ,EATING,2,1,10
4719.31875,7286.66015625,735.4109375,-692.140625,196.65625,507.984375,0.453125,1.75,-30.953125,-0.0576171875,-12.927734375,-2.6435546875,123.7587890625,-46.7587890625,-28.640625,93662.12890625,4716.475,7313.85,761.875,-748.5,253.0,587.0,-23.0,11.5,-20.5,5.46875,-9.3125,-3.46875,128.75,-40.375,-20.96875,93660.5,29.37321625789952,61.026052320955245,65.24208427856902,313.6688612436512,188.2997626000577,382.26499128419795,206.40020684801834,108.9575423352878,155.07217261726262,31.985534895411284,116.82230648299874,40.412631241359875,21.478345000644342,18.319319140412702,30.526968950967493,9.780527320024115,4700.0,7300.0,750.0,-834.0,255.0,337.0,38.0,32.0,-49.0,-114.25,-333.75,-100.5625,131.0,-66.5625,5.9375,93650.0,4765.45,7360.5,815.4,449.0,492.0,1361.0,968.0,295.0,543.0,62.25,506.625,112.375,149.8125,0.0,7.5625,93684.5,4661.6,7141.85,593.55,-1279.0,-280.0,-189.0,-470.0,-251.0,-457.0,-114.25,-333.75,-100.5625,0.0,-79.375,-101.6875,93647.25,LivingRoom ,EATING,3,0,6
4699.590625000001,7310.20078125,782.92265625,-623.4375,170.171875,649.703125,-2.578125,0.15625,-26.625,-2.689453125,-10.6630859375,-0.9970703125,130.94921875,-40.232421875,-16.0927734375,93662.078125,4698.625,7316.025,780.4749999999999,-662.0,203.0,722.0,-27.5,-1.0,-4.5,-2.15625,-14.40625,-1.625,131.75,-38.03125,-17.5,93664.0,30.426523354019523,22.253985717896555,30.063661197172454,295.0560815672866,169.6954840049277,302.9396021152763,204.95479987079923,106.53581538767824,153.8994208762065,30.787383249553876,113.33060035722832,39.338401720350106,18.9412301024157,15.560551484243726,13.924960068886262,13.065454496131247,4700.0,7300.0,800.0,-766.0,235.0,685.0,-30.0,-3.0,23.0,-114.25,-333.75,-8.0625,131.0,-32.125,5.9375,93650.0,4764.6,7360.5,832.7,449.0,492.0,1361.0,968.0,295.0,543.0,62.25,506.625,112.375,149.8125,0.0,7.5625,93684.5,4658.75,7272.45,726.85,-1279.0,-280.0,-189.0,-470.0,-251.0,-457.0,-114.25,-333.75,-100.5625,0.0,-79.375,-66.1875,93638.5,LivingRoom ,EATING,3,0,3
4713.604761904762,7293.9793650793645,801.3769841269841,-596.1746031746031,183.984126984127,699.1269841269841,-3.0634920634920637,-1.1111111111111112,-16.6984126984127,0.47023809523809523,5.334325396825397,3.6121031746031744,125.58531746031746,-37.97519841269841,-16.066468253968253,93658.28968253969,4711.5,7290.7,811.5,-583.0,201.0,765.0,-19.0,-2.0,-1.0,-0.9375,6.625,1.875,131.0,-35.3125,-14.875,93656.0,36.65024393076162,24.81450804001148,30.610960014607073,234.18599856789734,145.36133976687998,248.49680286536125,150.23292378040443,82.5995218120797,104.34954208296126,19.64408249215334,107.688713507856,30.800943243327783,19.965646849813417,12.428153095907696,12.61783109010145,14.451616046283764,4700.0,7300.0,800.0,-500.0,164.0,685.0,-67.0,-15.0,5.0,-2.75,10.5,-8.0625,131.0,-37.875,-11.875,93650.0,4788.85,7332.8,850.8,34.0,492.0,1078.0,456.0,230.0,301.0,55.8125,506.625,112.375,149.8125,-18.8125,7.5625,93684.5,4658.75,7240.95,727.05,-1279.0,-280.0,-189.0,-470.0,-251.0,-457.0,-56.0,-333.75,-78.1875,73.375,-79.375,-66.1875,93633.0,LivingRoom ,EATING,3,0,1
4725.170161290323,7285.48629032258,818.5362903225804,-613.2096774193549,231.1290322580645,726.5,-14.629032258064516,-0.3064516129032258,-2.3870967741935485,2.287298387096774,1.001008064516129,-0.5211693548387096,108.07862903225806,-37.649193548387096,-17.668346774193548,93658.84677419355,4718.3,7278.5,823.075,-661.5,220.0,710.5,-19.5,-1.5,3.5,0.03125,3.0625,-0.3125,119.90625,-38.28125,-18.0,93657.25,46.367750822818614,24.01670554070823,21.535883454751197,154.47957444660997,67.59655725809179,92.69122900483211,107.36917069364729,61.76756767682159,45.46710388506617,12.247508631721626,40.63902105447826,21.1239145841909,33.158429109963194,5.964475551234087,4.461090732233422,16.497475889816016,4700.0,7300.0,800.0,-692.0,164.0,663.0,-6.0,-5.0,5.0,-0.8125,-0.375,-8.0625,51.75,-43.5625,-18.1875,93633.0,4788.85,7332.8,850.8,34.0,492.0,875.0,456.0,230.0,132.0,43.625,111.6875,63.1875,149.8125,-25.4375,-9.5,93684.5,4658.75,7240.95,770.9,-1106.0,77.0,523.0,-470.0,-251.0,-166.0,-28.8125,-108.5625,-78.1875,51.75,-47.75,-26.875,93633.0,LivingRoom ,EATING,1,0,0
4747.9396825396825,7272.700000000001,833.5817460317461,-640.4126984126984,217.3015873015873,711.1904761904761,-15.031746031746032,-0.2222222222222222,-0.9682539682539683,-0.6884920634920635,1.5158730158730158,0.689484126984127,84.27182539682539,-39.833333333333336,-17.15674603174603,93656.38095238095,4775.5,7271.7,832.7,-674.0,221.0,684.0,-15.0,-1.0,0.0,0.125,3.3125,0.375,73.375,-42.875,-18.125,93654.25,52.53984061177281,13.64193014439366,13.779731204326596,87.95134925712917,30.939397016787783,82.10022536271319,27.37962996873373,10.40230192335617,21.898569885525266,3.772304168255686,23.667790571066682,5.024799489634816,36.17516984267581,5.789768680264156,3.354550371141313,14.508608202772825,4800.0,7250.0,850.0,-692.0,164.0,663.0,-6.0,-2.0,-3.0,-0.8125,-3.6875,-1.3125,38.0625,-42.9375,-18.125,93633.0,4811.75,7318.25,860.45,-381.0,296.0,871.0,92.0,36.0,44.0,7.875,52.375,19.6875,147.6875,-26.4375,-11.625,93684.25,4658.75,7240.95,805.45,-795.0,161.0,523.0,-78.0,-25.0,-76.0,-10.75,-79.125,-8.5625,38.0625,-47.75,-24.4375,93633.0,LivingRoom ,EATING,0,0,0
4769.634920634921,7269.219841269842,841.4603174603174,-644.7460317460317,214.31746031746033,712.2539682539683,-11.26984126984127,-0.6349206349206349,-0.7142857142857143,0.4146825396825397,1.4226190476190477,0.7906746031746031,59.41269841269841,-40.26190476190476,-16.971230158730158,93655.75,4777.1,7269.7,844.65,-671.0,221.0,686.0,-11.0,-1.0,-1.0,0.4375,1.3125,0.25,51.0,-42.875,-17.9375,93657.25,26.763705616002675,10.18077544610804,13.704967779352032,65.53722612525286,23.87523038012503,65.14821024798076,20.7933040937627,9.395094099516028,19.311060320221785,2.718322444766713,19.164769668779567,4.762295190887588,25.210268814311288,4.676692610493176,2.5422048736401344,13.885839270928658,4800.0,7250.0,850.0,-692.0,164.0,663.0,-6.0,-1.0,-17.0,1.625,-3.6875,0.375,36.75,-42.9375,-18.125,93663.5,4811.75,7288.45,860.45,-483.0,247.0,848.0,58.0,36.0,52.0,7.875,52.375,19.6875,119.75,-30.0,-11.625,93684.25,4700.8,7240.95,805.45,-732.0,161.0,616.0,-74.0,-25.0,-58.0,-5.9375,-80.625,-12.375,33.875,-46.4375,-20.4375,93633.0,LivingRoom ,EATING,0,0,0
4760.319047619048,7258.061904761906,853.9714285714284,-642.0952380952381,218.23809523809524,710.0952380952381,-12.174603174603174,-6.174603174603175,-1.2698412698412698,0.8184523809523809,-2.107142857142857,-0.3323412698412698,42.955357142857146,-40.06150793650794,-17.58531746031746,93657.95238095238,4776.2,7268.0,852.75,-674.0,220.0,684.0,-10.0,-1.0,-2.0,0.4375,0.1875,-0.375,37.6875,-42.875,-18.125,93659.0,34.950697335527266,24.630900659153873,17.916629764546002,69.10177493769007,20.242652419051346,64.74110084211458,31.074592713984035,23.08158020149518,30.696856174641994,8.294211283311512,17.954440931556363,4.665389052878757,11.861773345781064,4.756713370029081,1.7697012284326488,13.027487777312189,4800.0,7250.0,850.0,-692.0,205.0,663.0,0.0,-1.0,-17.0,-3.875,-3.6875,0.375,32.9375,-42.9375,-18.125,93663.5,4811.75,7288.45,887.85,-474.0,267.0,872.0,74.0,14.0,105.0,31.4375,61.875,21.25,71.6875,-31.625,-13.75,93675.25,4701.95,7197.2,818.8,-732.0,150.0,616.0,-166.0,-128.0,-141.0,-38.5625,-80.625,-12.375,28.875,-46.4375,-20.4375,93633.0,LivingRoom ,EATING,0,0,0
4753.484375,7254.717968749999,846.0835937500001,-629.390625,233.953125,700.734375,-10.890625,-8.21875,-1.90625,-4.4765625,-0.900390625,4.7734375,30.3515625,-40.0703125,-19.611328125,93658.703125,4749.075,7263.525,853.1,-603.5,222.0,678.5,-8.5,-1.0,-4.5,0.03125,-0.0625,0.71875,33.71875,-38.78125,-18.40625,93659.5,34.55822654340641,24.39674120703046,37.18286007968399,132.9939272020307,58.75735136377162,143.8671391257854,66.43988025645488,48.19190103530702,80.5543725966781,21.417215286191606,62.67123043985167,14.786541281699275,13.723542818097618,7.946930718038354,5.932223728654835,10.157868460787759,4750.0,7250.0,850.0,-727.0,222.0,634.0,-40.0,0.0,-10.0,-3.875,3.4375,0.375,32.9375,-42.9375,-20.4375,93663.5,4811.75,7288.45,887.85,-330.0,478.0,1126.0,166.0,144.0,336.0,32.3125,201.9375,75.0625,51.0,-30.0,-13.75,93675.25,4701.95,7197.2,744.5,-1046.0,150.0,203.0,-219.0,-131.0,-243.0,-65.25,-261.9375,-12.375,1.25,-66.125,-47.4375,93633.25,LivingRoom ,EATING,0,0,0
4763.034375,7242.55625,814.7757812499999,-583.0,257.25,728.765625,-16.0625,-10.328125,-7.03125,-3.5,-4.71484375,3.265625,27.2841796875,-36.21484375,-20.5869140625,93657.28125,4749.075,7245.6,850.975,-575.5,228.5,753.5,-12.0,-2.0,-10.0,-0.65625,-4.96875,-0.15625,31.65625,-34.125,-19.78125,93660.0,48.57905917243937,27.83382876662003,65.12502566321129,147.23084131703058,92.87609086287091,172.04454408323886,76.01688930966236,64.37688007733883,114.05498099809667,28.054046301538907,65.87464503514948,19.63640541592911,13.31165895364482,9.116011792826095,6.141141441362101,10.771849334967422,4750.0,7250.0,850.0,-727.0,183.0,203.0,-44.0,-2.0,-10.0,-3.875,3.4375,-48.625,31.5625,-34.875,-20.375,93663.5,4862.55,7285.2,887.85,-318.0,514.0,1126.0,166.0,144.0,336.0,56.1875,201.9375,75.0625,50.375,-21.625,-13.75,93675.25,4701.95,7194.2,703.2,-1046.0,21.0,203.0,-219.0,-237.0,-285.0,-65.4375,-261.9375,-48.625,1.25,-66.125,-47.4375,93633.25,LivingRoom ,EATING,0,0,1
4785.174218749999,7225.37578125,798.3578125,-549.34375,285.4375,735.40625,-17.375,-13.203125,-8.515625,-3.70703125,0.404296875,2.439453125,36.3232421875,-33.7822265625,-22.3818359375,93659.16015625,4802.924999999999,7222.775,787.525,-532.0,272.0,751.0,-11.0,-1.0,-23.0,-1.84375,-5.78125,-0.15625,31.65625,-31.90625,-21.75,93660.0,57.68173006686732,25.058613815693988,61.82908547772565,164.40283652884509,108.95839820629953,184.33042439364928,90.40727952148649,72.16959296552479,147.32773014420755,31.703078367114273,73.92920366041317,22.425004448110325,24.802700012551785,9.454005671541413,6.171853887220268,9.755682835878073,4850.0,7200.0,750.0,-578.0,183.0,927.0,-44.0,-106.0,-58.0,26.9375,3.4375,21.0625,31.5625,-34.875,-26.4375,93654.0,4862.55,7272.55,887.85,-318.0,514.0,1126.0,166.0,144.0,609.0,56.1875,201.9375,75.0625,86.5,-21.625,-13.75,93675.25,4701.95,7190.5,703.2,-1046.0,21.0,203.0,-286.0,-237.0,-285.0,-65.4375,-261.9375,-48.625,1.25,-66.125,-47.4375,93637.25,LivingRoom ,EATING,0,0,1
4819.84140625,7218.3359375,770.53359375,-560.296875,318.953125,705.890625,-16.140625,-11.765625,-15.359375,-2.9912109375,6.037109375,3.38671875,52.126953125,-34.7880859375,-25.193359375,93655.7421875,4839.575,7207.4,766.05,-532.0,320.0,687.0,-5.5,0.5,-37.0,0.03125,5.9375,0.90625,50.15625,-33.09375,-24.84375,93659.0,42.7211311182513,28.530787420840255,41.02449912125438,174.88215348950558,101.50915662622882,195.9636439546482,104.50227721184031,72.40116244517556,153.7618615569038,34.35216569728448,78.98645192777455,25.5958333696697,35.19561437063344,9.760249860008662,5.289225612798655,10.40727850749367,4850.0,7200.0,750.0,-516.0,374.0,927.0,41.0,-106.0,-58.0,-18.1875,5.9375,21.0625,1.25,-36.625,-28.75,93637.25,4862.55,7272.55,886.8,-318.0,514.0,1126.0,166.0,144.0,609.0,56.1875,201.9375,75.0625,101.4375,-21.625,-15.1875,93669.75,4721.7,7178.65,703.2,-1046.0,21.0,203.0,-355.0,-237.0,-285.0,-65.4375,-261.9375,-48.625,1.25,-66.125,-47.4375,93634.75,LivingRoom ,EATING,0,0,1
4832.3375,7211.995312500001,748.2125,-583.328125,306.875,700.578125,-19.453125,-13.90625,-16.578125,-0.7998046875,2.2578125,-4.2275390625,77.666015625,-35.693359375,-24.2509765625,93653.85546875,4840.025,7207.4,741.3,-567.0,320.0,693.0,-7.5,-1.5,-33.0,3.0625,-1.53125,-3.5625,87.28125,-34.8125,-24.125,93659.0,25.00994722740257,19.901407222219294,34.37355018587624,163.96641687582013,114.73039480479221,181.86108466921527,103.46104698893984,73.32093374607845,157.82789548509467,35.98199226449751,58.570430677111986,24.300755281277027,31.747279947598354,8.710559629055949,4.113597940888637,12.057386319437176,4850.0,7200.0,750.0,-578.0,335.0,925.0,41.0,-3.0,-58.0,-84.9375,-61.875,-1.25,110.9375,-41.0,-28.75,93634.75,4862.55,7250.15,810.6,-318.0,514.0,1055.0,193.0,138.0,609.0,70.25,147.1875,49.1875,115.8125,-21.625,-14.25,93669.75,4770.5,7178.65,695.95,-984.0,11.0,284.0,-355.0,-237.0,-285.0,-84.9375,-130.5,-60.125,9.125,-54.125,-35.25,93634.75,LivingRoom ,EATING,0,0,0
4811.596923076923,7208.407692307693,767.0761538461538,-533.3230769230769,189.41538461538462,731.2615384615384,-24.553846153846155,-12.261538461538462,-21.415384615384614,-8.49423076923077,-2.1028846153846152,-0.33653846153846156,96.96826923076924,-32.49807692307692,-16.474038461538463,93656.59615384616,4829.7,7203.2,765.35,-534.0,272.0,719.0,-18.0,0.0,-33.0,-4.625,4.5,-0.375,104.125,-35.0625,-22.4375,93662.0,40.954796800980674,19.124569502444885,47.04624894360295,228.25534684949795,227.3117278862122,190.696771482493,125.80627850603666,74.03109079195141,153.66195571648626,35.36472859638419,71.66922516524969,22.697856979533142,17.056704469732377,12.693939681691727,15.036356868257394,12.283889053897449,4850.0,7200.0,800.0,-578.0,335.0,925.0,41.0,-53.0,-93.0,-84.9375,-61.875,-1.25,104.75,-41.0,-28.75,93634.75,4860.5,7250.15,889.2,218.0,459.0,1109.0,341.0,138.0,609.0,70.25,147.1875,49.1875,116.0625,-7.1875,15.9375,93669.75,4745.5,7178.65,695.95,-984.0,-333.0,284.0,-355.0,-193.0,-306.0,-84.9375,-218.8125,-60.125,49.9375,-54.125,-35.25,93634.75,LivingRoom ,EATING,1,1,0
4792.04296875,7199.084375,807.0328125000001,-468.0625,35.625,771.6875,-23.09375,-11.640625,-17.9375,-9.9072265625,-5.400390625,1.833984375,104.4150390625,-28.609375,-6.31640625,93656.42578125,4769.7,7196.2,770.875,-501.5,101.5,798.5,-29.5,-4.5,-21.5,-3.90625,-0.6875,4.78125,104.28125,-32.78125,-11.28125,93659.0,41.29206740681761,27.870859896120933,96.9843229921723,262.95258037108044,283.741806398727,198.49568185299577,124.33106326920394,69.17412287693752,131.52522541564002,32.943151626864015,64.08294603917079,20.300557291194874,7.292290510621957,14.920137099619044,19.70641059217988,10.75426084694282,4750.0,7200.0,750.0,-984.0,-282.0,925.0,41.0,-19.0,-125.0,-84.9375,-218.8125,-2.0,103.125,-14.25,-21.5,93653.0,4860.5,7250.15,979.1,218.0,452.0,1133.0,341.0,138.0,269.0,70.25,119.25,49.1875,116.0625,-6.5,19.8125,93668.0,4745.5,7140.25,695.95,-984.0,-387.0,284.0,-355.0,-193.0,-306.0,-84.9375,-218.8125,-60.125,88.0625,-54.125,-35.25,93634.75,LivingRoom ,EATING,3,0,0
4769.35078125,7181.95390625,849.52890625,-378.96875,-122.328125,832.53125,-5.53125,-4.53125,-7.953125,-10.4248046875,-4.69140625,0.3701171875,106.224609375,-23.32421875,5.265625,93658.515625,4761.9,7185.45,883.375,-345.5,-232.0,843.5,-29.5,-4.5,-3.0,-4.65625,-11.09375,3.8125,104.59375,-15.875,15.53125,93662.0,23.99923525929011,43.811705061227876,107.64210165168215,277.5101867857129,247.57516445227583,205.09331741723412,154.77705099876084,71.8209786635526,145.39049003718904,31.078918961738278,77.35190653640328,16.704315010386022,4.9897677884933,15.021573750822146,17.48471554752258,9.808167454194683,4750.0,7200.0,950.0,41.0,-302.0,587.0,-304.0,-21.0,-125.0,-35.125,-218.8125,-2.0,103.125,-14.25,18.1875,93653.0,4848.95,7250.15,979.1,218.0,445.0,1313.0,452.0,138.0,279.0,70.25,219.5,38.5625,116.0625,-3.4375,22.4375,93669.25,4745.3,7118.15,695.95,-984.0,-469.0,284.0,-304.0,-193.0,-306.0,-84.9375,-218.8125,-60.125,98.625,-54.125,-33.4375,93634.75,LivingRoom ,EATING,3,1,1
4750.490625,7159.0671875,882.11640625,-397.859375,-187.078125,780.859375,-2.90625,-4.8125,-26.1875,-1.3642578125,-1.365234375,7.2666015625,104.908203125,-26.1025390625,11.4541015625,93661.953125,4755.125,7152.15,896.8,-345.5,-248.5,833.5,-29.5,-3.0,-35.0,3.21875,-0.6875,5.625,104.3125,-15.875,16.59375,93662.0,15.31715729303854,34.37867004217945,77.47725065733582,313.65641232099716,178.7524940163451,274.8741049307991,160.53350723274082,67.90676965575203,144.13759684897215,29.006701116443217,93.07173840338604,14.42524965649537,3.771252093789371,20.950454613453015,10.663476330625349,9.357205334215267,4750.0,7150.0,900.0,41.0,-302.0,625.0,-304.0,-21.0,-63.0,-35.125,40.1875,-2.0,103.125,-14.25,18.1875,93647.75,4771.05,7243.7,979.1,218.0,196.0,1313.0,452.0,129.0,282.0,55.75,219.5,45.0,116.0625,-3.4375,22.4375,93681.75,4714.9,7118.15,712.05,-1185.0,-469.0,-26.0,-304.0,-190.0,-342.0,-61.4375,-218.8125,-25.875,98.625,-84.4375,-14.375,93647.75,LivingRoom ,EATING,4,0,2
4734.407936507936,7159.448412698412,868.2579365079364,-552.4126984126984,-128.71428571428572,631.8412698412699,2.4126984126984126,-8.904761904761905,-21.41269841269841,6.063492063492063,12.83531746031746,6.179563492063492,105.07738095238095,-39.2718253968254,4.068452380952381,93662.23412698413,4739.8,7150.9,904.4,-524.0,-190.0,679.0,8.0,-5.0,-33.0,10.125,2.875,3.875,104.25,-37.0625,16.8125,93661.0,30.104618933930958,38.8690781904501,91.83146519854745,364.8014322853459,213.84132107494642,336.2134117927618,147.85985462708618,59.304766246391786,131.91048222192381,22.665946873877832,88.95930021337874,14.273398358962927,3.465151146117264,26.488281413850626,18.911361160243853,13.16588279569838,4750.0,7150.0,950.0,41.0,-65.0,963.0,86.0,-21.0,-63.0,-46.3125,40.1875,0.0,103.125,-14.25,18.1875,93647.0,4771.05,7292.3,979.1,114.0,257.0,1313.0,452.0,101.0,282.0,55.75,219.5,45.0,110.6875,-3.4375,22.4375,93688.0,4653.05,7118.15,716.8,-1185.0,-469.0,-26.0,-265.0,-187.0,-342.0,-46.3125,-167.75,-25.875,98.625,-84.4375,-38.0,93647.0,LivingRoom ,EATING,6,0,3
